(0)Quattro Sensor,,,,,
ACC X (370.37),ACC Y (370.37),ACC Z (370.37),GYRO X (370.37),GYRO Y (370.37),GYRO Z (370.37)
0.0,0.0,0.0,0.0,0.0,0.0
0.0,0.0,0.0,0.0,0.0,0.0
0.0,0.0,0.0,0.0,0.0,0.0
0.0,0.0,0.0,0.0,0.0,0.0
0.0,0.0,0.0,0.0,0.0,0.0
0.0,0.0,0.0,0.0,0.0,0.0
0.0,0.0,0.0,0.0,0.0,0.0
0.0,0.0,0.0,0.0,0.0,0.0
0.0,0.0,0.0,0.0,0.0,0.0
0.0,0.0,0.0,0.0,0.0,0.0
0.0,0.0,0.0,0.0,0.0,0.0
0.0,0.0,0.0,0.0,0.0,0.0
0.0,0.0,0.0,0.0,0.0,0.0
0.0,0.0,0.0,0.0,0.0,0.0
0.0,0.0,0.0,0.0,0.0,0.0
0.0,0.0,0.0,0.0,0.0,0.0
0.0,0.0,0.0,0.0,0.0,0.0
0.0,0.0,0.0,0.0,0.0,0.0
0.0,0.0,0.0,0.0,0.0,0.0
0.0,0.0,0.0,0.0,0.0,0.0
0.0,0.0,0.0,0.0,0.0,0.0
0.0,0.0,0.0,0.0,0.0,0.0
0.0,0.0,0.0,0.0,0.0,0.0
0.0,0.0,0.0,0.0,0.0,0.0
0.0,0.0,0.0,0.0,0.0,0.0
0.0,0.0,0.0,0.0,0.0,0.0
0.0,0.0,0.0,0.0,0.0,0.0
0.0,0.0,0.0,0.0,0.0,0.0
0.0,0.0,0.0,0.0,0.0,0.0
0.0,0.0,0.0,0.0,0.0,0.0
0.0,0.0,0.0,0.0,0.0,0.0
0.0,0.0,0.0,0.0,0.0,0.0
0.0,0.0,0.0,0.0,0.0,0.0
0.0,0.0,0.0,0.0,0.0,0.0
0.0,0.0,0.0,0.0,0.0,0.0
0.0,0.0,0.0,0.0,0.0,0.0
0.0,0.0,0.0,0.0,0.0,0.0
0.0,0.0,0.0,0.0,0.0,0.0
0.0,0.0,0.0,0.0,0.0,0.0
0.0,0.0,0.0,0.0,0.0,0.0
0.0,0.0,0.0,0.0,0.0,0.0
0.0,0.0,0.0,0.0,0.0,0.0
0.0,0.0,0.0,0.0,0.0,0.0
0.0,0.0,0.0,0.0,0.0,0.0
0.0,0.0,0.0,0.0,0.0,0.0
0.0,0.0,0.0,0.0,0.0,0.0
0.0,0.0,0.0,0.0,0.0,0.0
0.0,0.0,0.0,0.0,0.0,0.0
0.0,0.0,0.0,0.0,0.0,0.0
0.0,0.0,0.0,0.0,0.0,0.0
0.0,0.0,0.0,0.0,0.0,0.0
0.0,0.0,0.0,0.0,0.0,0.0
0.0,0.0,0.0,0.0,0.0,0.0
0.0,0.0,0.0,0.0,0.0,0.0
0.0,0.0,0.0,0.0,0.0,0.0
0.0,0.0,0.0,0.0,0.0,0.0
0.0,0.0,0.0,0.0,0.0,0.0
0.0,0.0,0.0,0.0,0.0,0.0
0.0,0.0,0.0,0.0,0.0,0.0
0.0,0.0,0.0,0.0,0.0,0.0
0.0,0.0,0.0,0.0,0.0,0.0
0.0,0.0,0.0,0.0,0.0,0.0
0.0,0.0,0.0,0.0,0.0,0.0
0.0,0.0,0.0,0.0,0.0,0.0
0.0,0.0,0.0,0.0,0.0,0.0
0.0,0.0,0.0,0.0,0.0,0.0
0.0,0.0,0.0,0.0,0.0,0.0
0.0,0.0,0.0,0.0,0.0,0.0
0.0,0.0,0.0,0.0,0.0,0.0
0.0,0.0,0.0,0.0,0.0,0.0
0.0,0.0,0.0,0.0,0.0,0.0
0.0,0.0,0.0,0.0,0.0,0.0
0.0,0.0,0.0,0.0,0.0,0.0
0.0,0.0,0.0,0.0,0.0,0.0
0.0,0.0,0.0,0.0,0.0,0.0
0.0,0.0,0.0,0.0,0.0,0.0
0.0,0.0,0.0,0.0,0.0,0.0
0.0,0.0,0.0,0.0,0.0,0.0
0.0,0.0,0.0,0.0,0.0,0.0
0.0,0.0,0.0,0.0,0.0,0.0
0.0,0.0,0.0,0.0,0.0,0.0
0.0,0.0,0.0,0.0,0.0,0.0
0.0,0.0,0.0,0.0,0.0,0.0
0.0,0.0,0.0,0.0,0.0,0.0
0.0,0.0,0.0,0.0,0.0,0.0
0.0,0.0,0.0,0.0,0.0,0.0
0.0,0.0,0.0,0.0,0.0,0.0
0.0,0.0,0.0,0.0,0.0,0.0
0.0,0.0,0.0,0.0,0.0,0.0
0.0,0.0,0.0,0.0,0.0,0.0
0.31793212890625,0.61077880859375,0.64678955078125,0.0,0.0,0.0
0.3138427734375,0.60137939453125,0.6536865234375,0.0,0.0,0.0
0.31134033203125,0.60015869140625,0.65472412109375,0.0,0.0,0.0
0.31768798828125,0.6014404296875,0.6536865234375,0.0,0.0,0.0
0.322265625,0.60076904296875,0.6539306640625,0.0,0.0,0.0
0.32000732421875,0.5992431640625,0.657470703125,0.0,0.0,0.0
0.324951171875,0.599609375,0.6566162109375,0.0,0.0,0.0
0.3240966796875,0.5975341796875,0.65826416015625,0.0,0.0,0.0
0.3197021484375,0.59466552734375,0.65753173828125,0.0,0.0,0.0
0.31536865234375,0.58978271484375,0.655029296875,0.08396946638822556,0.7099236845970154,2.816793918609619
0.31396484375,0.59051513671875,0.652099609375,0.39694657921791077,5.702290058135986,6.938931465148926
0.316650390625,0.59820556640625,0.65179443359375,0.47328245639801025,6.190839767456055,7.3740458488464355
0.32037353515625,0.59814453125,0.65155029296875,0.4351145029067993,6.312977313995361,7.259541988372803
0.32470703125,0.60711669921875,0.6492919921875,0.5648854970932007,6.41984748840332,7.160305500030518
0.32763671875,0.60455322265625,0.64849853515625,0.6641221642494202,6.251908302307129,6.847328186035156
0.32281494140625,0.6063232421875,0.64813232421875,0.8931297659873962,6.167938709259033,6.618320465087891
0.313232421875,0.6082763671875,0.64483642578125,1.1679389476776123,6.022900581359863,6.259541988372803
0.313720703125,0.60748291015625,0.6453857421875,1.0229008197784424,6.251908302307129,6.358778476715088
0.31134033203125,0.61065673828125,0.6468505859375,0.847328245639801,6.450381755828857,6.793893337249756
0.31298828125,0.60821533203125,0.64501953125,0.9389312863349915,6.389312744140625,6.8015265464782715
0.32415771484375,0.61322021484375,0.6463623046875,0.6030534505844116,6.648854732513428,6.740458011627197
0.32373046875,0.61767578125,0.64569091796875,0.5954198241233826,6.938931465148926,6.679389476776123
0.32501220703125,0.61370849609375,0.64129638671875,0.35114502906799316,6.282442569732666,6.213740348815918
0.3253173828125,0.61358642578125,0.638916015625,0.1679389327764511,6.335877895355225,5.534351348876953
0.3226318359375,0.610595703125,0.6424560546875,-0.08396946638822556,6.053435325622559,5.251908302307129
0.3228759765625,0.60675048828125,0.64276123046875,-0.22900763154029846,6.465648651123047,5.366412162780762
0.31787109375,0.60345458984375,0.64385986328125,-0.20610687136650085,6.43511438369751,5.175572395324707
0.3201904296875,0.60150146484375,0.6458740234375,-0.038167938590049744,7.0,5.0916032791137695
0.32098388671875,0.59942626953125,0.645263671875,0.15267175436019897,6.740458011627197,5.099236488342285
0.32373046875,0.6063232421875,0.64617919921875,-0.11450381577014923,7.045801639556885,5.030534267425537
0.32342529296875,0.60650634765625,0.64501953125,-0.022900763899087906,6.58015251159668,5.152671813964844
0.3226318359375,0.6058349609375,0.6474609375,0.4122137427330017,6.7633585929870605,4.450381755828857
0.3218994140625,0.602294921875,0.646240234375,0.20610687136650085,6.72519063949585,4.488549709320068
0.32135009765625,0.60321044921875,0.64544677734375,0.06106870248913765,6.320610523223877,4.572519302368164
0.3197021484375,0.603271484375,0.64776611328125,0.4198473393917084,6.190839767456055,5.053435325622559
0.31732177734375,0.60565185546875,0.6490478515625,0.20610687136650085,6.465648651123047,4.778625965118408
0.31671142578125,0.6077880859375,0.64727783203125,0.4122137427330017,6.916030406951904,4.877862453460693
0.31671142578125,0.60931396484375,0.645751953125,0.49618321657180786,7.27480936050415,5.083969593048096
0.31903076171875,0.60369873046875,0.64599609375,0.732824444770813,7.488549709320068,5.007633686065674
0.31915283203125,0.6099853515625,0.6519775390625,0.442748099565506,7.503816604614258,4.847328186035156
0.31805419921875,0.60894775390625,0.650634765625,1.267175555229187,7.396946430206299,5.015267372131348
0.31768798828125,0.60833740234375,0.64990234375,0.9618320465087891,7.496183395385742,5.206106662750244
0.3150634765625,0.60577392578125,0.650390625,0.9083969593048096,7.076335906982422,5.442748069763184
0.3135986328125,0.60491943359375,0.646484375,0.9083969593048096,6.816793918609619,5.85496187210083
0.31036376953125,0.60968017578125,0.65118408203125,0.7251908183097839,7.213740348815918,6.389312744140625
0.31207275390625,0.60784912109375,0.64788818359375,0.7938931584358215,7.366412162780762,6.43511438369751
0.32037353515625,0.60687255859375,0.6439208984375,1.0229008197784424,7.114503860473633,6.809160232543945
0.3221435546875,0.60858154296875,0.6461181640625,0.7557252049446106,7.167938709259033,6.824427604675293
0.32183837890625,0.61175537109375,0.6466064453125,0.580152690410614,7.427480697631836,6.496183395385742
0.32373046875,0.6104736328125,0.64569091796875,0.35877862572669983,7.396946430206299,6.358778476715088
0.32855224609375,0.608154296875,0.64984130859375,0.5572519302368164,7.450381755828857,6.122137546539307
0.3291015625,0.605712890625,0.64520263671875,0.25190839171409607,7.748091697692871,5.824427604675293
0.33087158203125,0.6129150390625,0.6419677734375,0.17557251453399658,7.809160232543945,5.893129825592041
0.33160400390625,0.6121826171875,0.64361572265625,-0.1679389327764511,7.877862453460693,5.206106662750244
0.3360595703125,0.60894775390625,0.64410400390625,0.015267175622284412,8.12977123260498,5.007633686065674
0.33905029296875,0.609130859375,0.64373779296875,-0.20610687136650085,8.320611000061035,4.4809160232543945
0.33551025390625,0.60638427734375,0.64031982421875,-0.25954198837280273,8.458015441894531,4.4122138023376465
0.336669921875,0.6026611328125,0.64166259765625,-0.13740457594394684,8.183206558227539,3.7022900581359863
0.3369140625,0.60760498046875,0.641845703125,-0.49618321657180786,7.954198360443115,3.244274854660034
0.33392333984375,0.60888671875,0.6429443359375,-0.18320611119270325,7.396946430206299,2.8015267848968506
0.33111572265625,0.60498046875,0.64483642578125,-0.221374049782753,7.442748069763184,2.2748091220855713
0.32421875,0.60662841796875,0.64404296875,-0.6259542107582092,7.282442569732666,1.961832046508789
0.322998046875,0.61126708984375,0.6435546875,-0.45038166642189026,7.458015441894531,1.9465649127960205
0.3150634765625,0.60430908203125,0.6453857421875,-0.5419847369194031,7.137404441833496,2.251908302307129
0.30718994140625,0.6075439453125,0.64642333984375,-0.580152690410614,7.259541988372803,2.641221284866333
0.30352783203125,0.60687255859375,0.64666748046875,-0.6183205842971802,7.206106662750244,3.2595419883728027
0.30615234375,0.6070556640625,0.64410400390625,-0.35877862572669983,7.473282337188721,3.9389312267303467
0.30999755859375,0.6103515625,0.6473388671875,-0.49618321657180786,7.1984734535217285,4.076335906982422
0.3138427734375,0.60882568359375,0.6463623046875,-0.42748090624809265,7.068702220916748,4.595419883728027
0.3203125,0.6123046875,0.64532470703125,-0.08396946638822556,6.8015265464782715,4.496183395385742
0.32403564453125,0.612548828125,0.643310546875,-0.28244274854660034,6.85496187210083,4.595419883728027
0.320068359375,0.611572265625,0.64288330078125,-0.25954198837280273,6.603053569793701,4.1984734535217285
0.3223876953125,0.611328125,0.64471435546875,-0.8549618124961853,6.778625965118408,3.992366313934326
0.32025146484375,0.6136474609375,0.64739990234375,-0.6259542107582092,6.740458011627197,3.679389238357544
0.31915283203125,0.6170654296875,0.64837646484375,-0.6870229244232178,6.770992279052734,3.755725145339966
0.31707763671875,0.61334228515625,0.64996337890625,-0.5419847369194031,6.946564674377441,3.389312982559204
0.3155517578125,0.6141357421875,0.64544677734375,-0.2748091518878937,6.992366313934326,3.8396947383880615
0.3165283203125,0.6112060546875,0.64532470703125,-0.3664122223854065,6.977099418640137,3.70992374420166
0.308349609375,0.60845947265625,0.6466064453125,-0.2748091518878937,7.015267372131348,4.259541988372803
0.31134033203125,0.60565185546875,0.6507568359375,-0.290076345205307,6.85496187210083,4.793893337249756
0.31298828125,0.6068115234375,0.64984130859375,-0.5267175436019897,6.877862453460693,5.2366414070129395
0.312255859375,0.6087646484375,0.64630126953125,-0.6030534505844116,7.045801639556885,5.229007720947266
0.31549072265625,0.6070556640625,0.64947509765625,-0.32824426889419556,6.877862453460693,5.259541988372803
0.31243896484375,0.6058349609375,0.648193359375,-0.6183205842971802,6.770992279052734,5.610687255859375
0.31439208984375,0.6068115234375,0.64996337890625,-0.442748099565506,6.648854732513428,5.610687255859375
0.311279296875,0.60589599609375,0.64959716796875,-0.2748091518878937,6.129770755767822,6.106870174407959
0.3201904296875,0.60894775390625,0.6463623046875,-0.19083969295024872,6.27480936050415,6.152671813964844
0.3192138671875,0.60394287109375,0.64788818359375,-0.45038166642189026,6.381679534912109,6.076335906982422
0.3212890625,0.606201171875,0.64581298828125,-0.2442748099565506,6.335877895355225,6.14503812789917
0.329345703125,0.6043701171875,0.644775390625,-0.37404578924179077,6.9083967208862305,5.961832046508789
0.33154296875,0.608154296875,0.64691162109375,-0.39694657921791077,7.053435325622559,6.160305500030518
0.33111572265625,0.60882568359375,0.6475830078125,-0.3206106722354889,7.335877895355225,5.832061290740967
0.3323974609375,0.60693359375,0.6470947265625,-0.5496183037757874,7.320610523223877,5.526717662811279
0.330078125,0.610595703125,0.644775390625,-0.572519063949585,7.648854732513428,5.1984734535217285
0.33197021484375,0.61090087890625,0.64666748046875,-0.6030534505844116,7.3053436279296875,4.770992279052734
0.32781982421875,0.60797119140625,0.6468505859375,-0.6870229244232178,7.656488418579102,4.358778476715088
0.3280029296875,0.60321044921875,0.644287109375,-0.17557251453399658,7.534351348876953,4.572519302368164
0.31768798828125,0.6033935546875,0.6470947265625,-0.3206106722354889,7.167938709259033,4.458015441894531
0.31787109375,0.6002197265625,0.64678955078125,-0.37404578924179077,7.458015441894531,5.053435325622559
0.31524658203125,0.60284423828125,0.651611328125,-0.1679389327764511,7.381679534912109,5.221374034881592
0.3175048828125,0.603271484375,0.64788818359375,0.2748091518878937,7.648854732513428,5.206106662750244
0.32415771484375,0.6043701171875,0.6484375,0.221374049782753,7.381679534912109,5.175572395324707
0.32513427734375,0.60693359375,0.64923095703125,0.19083969295024872,7.351145267486572,5.267175674438477
0.32586669921875,0.60711669921875,0.64825439453125,0.3664122223854065,7.351145267486572,5.045801639556885
0.31866455078125,0.6064453125,0.646484375,0.732824444770813,6.610687255859375,4.969465732574463
0.31878662109375,0.6060791015625,0.646240234375,0.6106870174407959,7.015267372131348,4.9083967208862305
0.3133544921875,0.60919189453125,0.646728515625,0.2748091518878937,6.458015441894531,4.992366313934326
0.310546875,0.609375,0.64630126953125,0.42748090624809265,6.312977313995361,5.152671813964844
0.31536865234375,0.60467529296875,0.6478271484375,0.22900763154029846,6.702290058135986,5.641221523284912
0.3157958984375,0.61053466796875,0.6483154296875,1.0076335668563843,6.610687255859375,5.610687255859375
0.3209228515625,0.6134033203125,0.64862060546875,0.5572519302368164,6.778625965118408,5.740458011627197
0.31890869140625,0.61004638671875,0.64617919921875,0.38167938590049744,6.977099418640137,5.56488561630249
0.32574462890625,0.6085205078125,0.646484375,0.580152690410614,6.969465732574463,5.488549709320068
0.32073974609375,0.6068115234375,0.64630126953125,0.290076345205307,6.847328186035156,5.687022686004639
0.3140869140625,0.6036376953125,0.64434814453125,0.4122137427330017,6.496183395385742,5.6946563720703125
0.3126220703125,0.6082763671875,0.6483154296875,0.39694657921791077,6.656488418579102,5.961832046508789
0.3150634765625,0.60162353515625,0.646484375,0.2977099120616913,6.595419883728027,6.267175674438477
0.319580078125,0.6070556640625,0.6463623046875,0.15267175436019897,6.954198360443115,6.534351348876953
0.3216552734375,0.60552978515625,0.64666748046875,0.2748091518878937,6.893129825592041,6.648854732513428
0.32672119140625,0.608642578125,0.64898681640625,0.290076345205307,6.70992374420166,6.702290058135986
0.330078125,0.609130859375,0.649169921875,0.32824426889419556,6.847328186035156,6.72519063949585
0.32965087890625,0.60711669921875,0.64569091796875,0.47328245639801025,6.343511581420898,6.458015441894531
0.3284912109375,0.60528564453125,0.64459228515625,0.42748090624809265,6.603053569793701,6.206106662750244
0.32745361328125,0.6083984375,0.64453125,0.12977099418640137,7.015267372131348,6.030534267425537
0.33111572265625,0.6070556640625,0.6424560546875,0.2671755850315094,6.7633585929870605,5.427480697631836
0.3294677734375,0.60614013671875,0.6429443359375,0.3129771053791046,6.916030406951904,5.702290058135986
0.33050537109375,0.6055908203125,0.6427001953125,-0.022900763899087906,7.2366414070129395,5.648854732513428
0.33306884765625,0.6075439453125,0.63653564453125,-0.25190839171409607,6.946564674377441,5.572519302368164
0.32952880859375,0.60943603515625,0.63482666015625,-0.45038166642189026,6.893129825592041,5.366412162780762
0.331298828125,0.60498046875,0.639892578125,-0.7404580116271973,6.603053569793701,5.114503860473633
0.32611083984375,0.60675048828125,0.64117431640625,-1.106870174407959,6.809160232543945,5.160305500030518
0.32684326171875,0.60919189453125,0.6451416015625,-1.160305380821228,6.4809160232543945,4.7633585929870605
0.32647705078125,0.60711669921875,0.65142822265625,-1.0839694738388062,6.671755790710449,4.503816604614258
0.323974609375,0.606201171875,0.64837646484375,-0.7480915784835815,6.541984558105469,4.4809160232543945
0.31842041015625,0.5997314453125,0.64434814453125,-0.4351145029067993,6.687022686004639,4.160305500030518
0.3189697265625,0.60040283203125,0.6407470703125,-0.7022900581359863,6.129770755767822,4.160305500030518
0.31866455078125,0.59814453125,0.64556884765625,-0.6717557311058044,6.183206081390381,4.58015251159668
0.32037353515625,0.59954833984375,0.64306640625,-0.4122137427330017,5.832061290740967,4.877862453460693
0.31488037109375,0.5992431640625,0.64892578125,-0.17557251453399658,6.343511581420898,5.213740348815918
0.31353759765625,0.60272216796875,0.64990234375,0.04580152779817581,6.954198360443115,5.053435325622559
0.3172607421875,0.60467529296875,0.65106201171875,0.12977099418640137,6.893129825592041,4.916030406951904
0.316650390625,0.60791015625,0.65313720703125,0.09923664480447769,6.748091697692871,5.183206081390381
0.31494140625,0.6083984375,0.64874267578125,0.2748091518878937,6.931297779083252,5.083969593048096
0.31793212890625,0.607177734375,0.651611328125,0.6335877776145935,7.27480936050415,5.458015441894531
0.31585693359375,0.60595703125,0.6494140625,0.6488549709320068,7.175572395324707,5.229007720947266
0.31402587890625,0.60467529296875,0.6484375,0.5648854970932007,7.4809160232543945,5.72519063949585
0.31964111328125,0.60614013671875,0.64654541015625,0.7251908183097839,7.511450290679932,5.839694499969482
0.321533203125,0.6063232421875,0.644287109375,0.572519063949585,6.992366313934326,6.122137546539307
0.32806396484375,0.60748291015625,0.64312744140625,0.6335877776145935,7.160305500030518,5.938931465148926
0.323974609375,0.60955810546875,0.64215087890625,0.5877862572669983,6.43511438369751,6.007633686065674
0.32305908203125,0.6064453125,0.641845703125,0.5648854970932007,6.122137546539307,5.946564674377441
0.31890869140625,0.6072998046875,0.64276123046875,0.07633587718009949,5.969465732574463,5.946564674377441
0.3211669921875,0.60882568359375,0.64202880859375,0.09923664480447769,6.122137546539307,5.786259651184082
0.32720947265625,0.6121826171875,0.6446533203125,0.23664122819900513,6.343511581420898,6.022900581359863
0.329345703125,0.61309814453125,0.643798828125,0.030534351244568825,6.687022686004639,5.5877861976623535
0.3363037109375,0.615234375,0.644775390625,0.12977099418640137,6.702290058135986,5.809160232543945
0.33856201171875,0.61285400390625,0.6429443359375,0.4122137427330017,6.244274616241455,5.5190839767456055
0.34454345703125,0.61785888671875,0.6370849609375,0.1450381726026535,6.076335906982422,5.2366414070129395
0.34539794921875,0.6219482421875,0.639404296875,-0.28244274854660034,6.358778476715088,3.786259651184082
0.3409423828125,0.61761474609375,0.633544921875,-0.4656488597393036,6.106870174407959,3.458015203475952
0.33544921875,0.61407470703125,0.6400146484375,-0.9007633328437805,6.389312744140625,2.2595419883728027
0.33160400390625,0.60919189453125,0.64190673828125,-1.160305380821228,6.29007625579834,2.1603052616119385
0.326171875,0.60687255859375,0.650146484375,-1.3358778953552246,6.5877861976623535,1.839694619178772
0.3226318359375,0.6019287109375,0.6473388671875,-1.2061069011688232,6.610687255859375,2.1526718139648438
0.31982421875,0.60003662109375,0.65301513671875,-1.0152671337127686,6.503816604614258,2.6641221046447754
0.3172607421875,0.59820556640625,0.65362548828125,-1.14503812789917,6.656488418579102,2.5267176628112793
0.31402587890625,0.59710693359375,0.655517578125,-0.47328245639801025,6.511450290679932,3.0152671337127686
0.31134033203125,0.59527587890625,0.65496826171875,-0.3893129825592041,6.27480936050415,3.389312982559204
0.314697265625,0.59539794921875,0.658935546875,0.12977099418640137,6.358778476715088,3.778625965118408
0.31390380859375,0.59503173828125,0.654052734375,-0.038167938590049744,6.503816604614258,4.320610523223877
0.3087158203125,0.5943603515625,0.65435791015625,0.19847328960895538,6.595419883728027,4.473282337188721
0.31170654296875,0.6005859375,0.6568603515625,0.40458014607429504,6.938931465148926,5.541984558105469
0.314453125,0.60052490234375,0.6561279296875,0.4656488597393036,6.961832046508789,5.946564674377441
0.31402587890625,0.60821533203125,0.6571044921875,0.9465649127960205,7.183206081390381,6.465648651123047
0.31597900390625,0.605224609375,0.65411376953125,1.1755725145339966,7.221374034881592,6.70992374420166
0.32452392578125,0.6063232421875,0.6484375,1.122137427330017,7.41984748840332,7.328244209289551
0.32373046875,0.60736083984375,0.65252685546875,1.0763359069824219,7.6259541511535645,7.3740458488464355
0.3319091796875,0.6129150390625,0.642333984375,1.3511450290679932,7.786259651184082,7.351145267486572
0.33514404296875,0.61688232421875,0.6395263671875,1.3129770755767822,7.603053569793701,7.29007625579834
0.33477783203125,0.62054443359375,0.642822265625,0.6412213444709778,7.0916032791137695,6.603053569793701
0.3297119140625,0.61810302734375,0.64532470703125,0.6335877776145935,6.85496187210083,6.458015441894531
0.32110595703125,0.61846923828125,0.64495849609375,0.442748099565506,6.8015265464782715,5.8015265464782715
0.31640625,0.61651611328125,0.64593505859375,-0.038167938590049744,6.465648651123047,5.6946563720703125
0.313720703125,0.61212158203125,0.64251708984375,-0.038167938590049744,6.465648651123047,5.847328186035156
0.31231689453125,0.61505126953125,0.646484375,0.06870228797197342,6.687022686004639,6.129770755767822
0.30828857421875,0.6134033203125,0.64410400390625,0.40458014607429504,6.862595558166504,6.740458011627197
0.309326171875,0.61102294921875,0.64483642578125,0.6564885377883911,6.916030406951904,7.366412162780762
0.31060791015625,0.60888671875,0.6451416015625,0.572519063949585,6.938931465148926,7.557251930236816
0.31524658203125,0.61181640625,0.6407470703125,0.6183205842971802,6.885496139526367,7.511450290679932
0.320068359375,0.61041259765625,0.64111328125,0.5114504098892212,6.832061290740967,7.183206081390381
0.3253173828125,0.61114501953125,0.6407470703125,0.7709923386573792,6.862595558166504,6.938931465148926
0.32568359375,0.61346435546875,0.6397705078125,0.3358778655529022,6.755725383758545,6.755725383758545
0.33013916015625,0.6136474609375,0.63873291015625,0.442748099565506,6.534351348876953,6.183206081390381
0.32659912109375,0.61236572265625,0.635986328125,0.732824444770813,6.687022686004639,6.175572395324707
0.32415771484375,0.61187744140625,0.63702392578125,-0.04580152779817581,6.488549709320068,5.389312744140625
0.3226318359375,0.6126708984375,0.6400146484375,-0.04580152779817581,6.717557430267334,5.076335906982422
0.3182373046875,0.61444091796875,0.64495849609375,-0.25954198837280273,6.549618244171143,5.404580116271973
0.32208251953125,0.61431884765625,0.64166259765625,-0.5190839767456055,6.152671813964844,5.282442569732666
0.3228759765625,0.61175537109375,0.6439208984375,-0.6259542107582092,6.267175674438477,5.076335906982422
0.32373046875,0.61029052734375,0.64312744140625,-0.4198473393917084,6.14503812789917,5.007633686065674
0.3258056640625,0.605712890625,0.644287109375,-0.6870229244232178,6.450381755828857,4.977099418640137
0.32879638671875,0.6044921875,0.6466064453125,-0.7557252049446106,6.5877861976623535,5.0
0.3294677734375,0.60699462890625,0.64886474609375,-0.9083969593048096,6.541984558105469,4.847328186035156
0.32598876953125,0.60968017578125,0.64544677734375,-1.1145038604736328,7.251908302307129,4.72519063949585
0.32867431640625,0.60577392578125,0.650390625,-1.4580153226852417,7.2366414070129395,4.458015441894531
0.3302001953125,0.60260009765625,0.65106201171875,-1.0992366075515747,7.816793918609619,4.29007625579834
0.33270263671875,0.60418701171875,0.65301513671875,-1.0839694738388062,7.4809160232543945,4.29007625579834
0.333251953125,0.60101318359375,0.65087890625,-0.9312977194786072,7.404580116271973,4.328244209289551
0.33282470703125,0.598876953125,0.6519775390625,-1.0076335668563843,7.641221523284912,4.534351348876953
0.333251953125,0.5972900390625,0.65301513671875,-0.8931297659873962,7.083969593048096,4.137404441833496
0.33355712890625,0.5966796875,0.6549072265625,-0.9389312863349915,7.244274616241455,4.213740348815918
0.33392333984375,0.59490966796875,0.6566162109375,-0.6793892979621887,7.549618244171143,3.9007632732391357
0.3316650390625,0.5947265625,0.65380859375,-0.5954198241233826,7.618320465087891,4.183206081390381
0.33160400390625,0.59307861328125,0.65380859375,-0.25954198837280273,8.19847297668457,4.099236488342285
0.32958984375,0.594482421875,0.6541748046875,-0.022900763899087906,8.175572395324707,4.3740458488464355
0.32611083984375,0.5955810546875,0.64971923828125,0.3893129825592041,8.458015441894531,4.503816604614258
0.322265625,0.594970703125,0.651611328125,0.30534350872039795,8.251908302307129,4.824427604675293
0.3212890625,0.59808349609375,0.65093994140625,0.5954198241233826,8.244275093078613,5.0916032791137695
0.3245849609375,0.603759765625,0.6513671875,0.5572519302368164,8.396946907043457,5.381679534912109
0.32763671875,0.60919189453125,0.652099609375,0.5954198241233826,8.244275093078613,5.56488561630249
0.33831787109375,0.60870361328125,0.65106201171875,0.6335877776145935,8.106870651245117,5.664122104644775
0.3316650390625,0.61004638671875,0.64508056640625,0.847328245639801,7.511450290679932,5.809160232543945
0.327880859375,0.61517333984375,0.64276123046875,0.5496183037757874,6.961832046508789,5.282442569732666
0.33050537109375,0.61053466796875,0.6417236328125,0.022900763899087906,7.358778476715088,4.648854732513428
0.32696533203125,0.60955810546875,0.64276123046875,0.06106870248913765,7.160305500030518,4.885496139526367
0.32476806640625,0.6072998046875,0.64019775390625,-0.13740457594394684,7.259541988372803,4.5877861976623535
0.32183837890625,0.611328125,0.642822265625,-0.30534350872039795,7.152671813964844,4.381679534912109
0.32098388671875,0.61126708984375,0.64520263671875,-0.5419847369194031,7.045801639556885,5.022900581359863
0.32843017578125,0.609619140625,0.6461181640625,-0.7633587718009949,6.748091697692871,4.885496139526367
0.3240966796875,0.60870361328125,0.6444091796875,-0.8167939186096191,6.641221523284912,4.732824325561523
0.32373046875,0.603515625,0.64178466796875,-0.9160305261611938,6.916030406951904,4.656488418579102
0.3250732421875,0.60198974609375,0.64801025390625,-1.5496183633804321,6.3740458488464355,4.465648651123047
0.3211669921875,0.60400390625,0.6502685546875,-1.4885495901107788,6.312977313995361,4.610687255859375
0.3214111328125,0.603271484375,0.64813232421875,-1.6183205842971802,6.389312744140625,4.511450290679932
0.32598876953125,0.600830078125,0.64947509765625,-1.465648889541626,6.43511438369751,4.885496139526367
0.31829833984375,0.5987548828125,0.651611328125,-1.2900763750076294,6.824427604675293,4.954198360443115
0.32037353515625,0.59954833984375,0.64691162109375,-0.7251908183097839,6.8015265464782715,5.3053436279296875
0.3243408203125,0.5950927734375,0.64361572265625,-0.8320610523223877,6.511450290679932,4.931297779083252
0.3280029296875,0.59234619140625,0.6495361328125,-0.9160305261611938,6.969465732574463,4.793893337249756
0.328369140625,0.59979248046875,0.6412353515625,-0.9083969593048096,6.778625965118408,4.099236488342285
0.3231201171875,0.59991455078125,0.64093017578125,-0.6870229244232178,7.022900581359863,3.748091697692871
0.32281494140625,0.60247802734375,0.645263671875,-0.7709923386573792,6.954198360443115,3.3816792964935303
0.3155517578125,0.603515625,0.648681640625,-0.6717557311058044,7.381679534912109,3.1297709941864014
0.32452392578125,0.609619140625,0.64862060546875,-0.5496183037757874,7.916030406951904,3.1526718139648438
0.3270263671875,0.61419677734375,0.64959716796875,-1.0152671337127686,8.122137069702148,1.8625954389572144
0.3157958984375,0.6134033203125,0.6573486328125,-1.0610686540603638,8.282443046569824,1.6488549709320068
0.31072998046875,0.6097412109375,0.6480712890625,-0.6870229244232178,6.70992374420166,2.6870229244232178
0.3133544921875,0.60845947265625,0.647216796875,-0.20610687136650085,6.030534267425537,3.3664121627807617
0.3126220703125,0.61187744140625,0.645751953125,-0.47328245639801025,6.320610523223877,4.534351348876953
0.31378173828125,0.60845947265625,0.64691162109375,-0.6488549709320068,6.465648651123047,4.648854732513428
0.30706787109375,0.60693359375,0.65093994140625,-0.35877862572669983,7.43511438369751,4.824427604675293
0.308349609375,0.60491943359375,0.65496826171875,-0.885496199131012,7.633587837219238,4.679389476776123
0.30548095703125,0.6033935546875,0.65789794921875,-0.3893129825592041,7.358778476715088,5.282442569732666
0.30633544921875,0.59881591796875,0.65753173828125,-0.25190839171409607,7.603053569793701,5.687022686004639
0.298583984375,0.5986328125,0.6588134765625,0.06870228797197342,7.404580116271973,6.251908302307129
0.30230712890625,0.60198974609375,0.6591796875,0.4198473393917084,7.14503812789917,6.9083967208862305
0.3033447265625,0.59869384765625,0.65679931640625,0.7175572514533997,7.41984748840332,7.14503812789917
0.3076171875,0.60137939453125,0.6568603515625,1.2213740348815918,8.206107139587402,7.72519063949585
0.31109619140625,0.6014404296875,0.648193359375,1.3129770755767822,8.152671813964844,7.893129825592041
0.312255859375,0.6029052734375,0.64324951171875,1.0839694738388062,8.137404441833496,8.297709465026855
0.30889892578125,0.61846923828125,0.64227294921875,0.5267175436019897,7.206106662750244,8.664122581481934
0.324951171875,0.62530517578125,0.653564453125,0.030534351244568825,5.900763511657715,9.312976837158203
0.336669921875,0.61810302734375,0.65130615234375,0.030534351244568825,5.58015251159668,9.236640930175781
0.34320068359375,0.61328125,0.6448974609375,0.12977099418640137,6.221374034881592,8.564885139465332
0.34600830078125,0.6107177734375,0.6405029296875,0.08396946638822556,6.748091697692871,7.931297779083252
0.34149169921875,0.6070556640625,0.63653564453125,-0.9007633328437805,7.045801639556885,6.221374034881592
0.32904052734375,0.60443115234375,0.64013671875,-1.412213683128357,6.916030406951904,5.70992374420166
0.3179931640625,0.5972900390625,0.65618896484375,-1.14503812789917,6.297709941864014,6.633587837219238
0.31866455078125,0.59619140625,0.6646728515625,-0.45038166642189026,6.022900581359863,7.022900581359863
0.33184814453125,0.60430908203125,0.6590576171875,0.7862595319747925,6.160305500030518,7.312977313995361
0.33258056640625,0.60284423828125,0.64892578125,1.2213740348815918,6.770992279052734,7.473282337188721
0.33160400390625,0.59954833984375,0.6444091796875,1.160305380821228,7.190839767456055,7.610687255859375
0.33184814453125,0.6004638671875,0.64581298828125,0.9541984796524048,7.4122138023376465,7.015267372131348
0.33331298828125,0.6036376953125,0.644775390625,0.8931297659873962,7.534351348876953,7.0916032791137695
0.33563232421875,0.60101318359375,0.6427001953125,0.7938931584358215,7.748091697692871,6.862595558166504
0.3297119140625,0.6043701171875,0.64337158203125,0.8702290058135986,7.5190839767456055,6.8015265464782715
0.323974609375,0.60589599609375,0.6448974609375,0.8549618124961853,7.938931465148926,6.244274616241455
0.3272705078125,0.6063232421875,0.64508056640625,0.7022900581359863,7.496183395385742,6.43511438369751
0.32769775390625,0.6070556640625,0.643798828125,0.7251908183097839,7.679389476776123,6.0916032791137695
0.328125,0.6072998046875,0.64251708984375,0.7022900581359863,7.664122104644775,6.175572395324707
0.3306884765625,0.61053466796875,0.64178466796875,0.30534350872039795,7.312977313995361,6.267175674438477
0.3292236328125,0.61260986328125,0.64019775390625,0.11450381577014923,7.206106662750244,5.954198360443115
0.33160400390625,0.61083984375,0.6417236328125,0.2671755850315094,6.610687255859375,5.923664093017578
0.33636474609375,0.611083984375,0.63983154296875,-0.37404578924179077,6.442748069763184,5.984732627868652
0.33441162109375,0.6085205078125,0.63836669921875,-0.6641221642494202,5.839694499969482,5.862595558166504
0.3319091796875,0.60272216796875,0.641845703125,-0.8167939186096191,5.877862453460693,5.320610523223877
0.3353271484375,0.6082763671875,0.64508056640625,-0.9160305261611938,5.70992374420166,5.297709941864014
0.3350830078125,0.60906982421875,0.6435546875,-1.1526718139648438,5.847328186035156,4.778625965118408
0.3392333984375,0.60406494140625,0.6419677734375,-1.496183156967163,6.190839767456055,4.6259541511535645
0.3377685546875,0.6033935546875,0.64276123046875,-1.3511450290679932,5.977099418640137,4.58015251159668
0.33026123046875,0.60455322265625,0.65081787109375,-1.6335878372192383,6.068702220916748,4.190839767456055
0.326416015625,0.599609375,0.65203857421875,-1.6564885377883911,5.7633585929870605,4.267175674438477
0.32696533203125,0.59832763671875,0.65386962890625,-1.496183156967163,5.664122104644775,4.366412162780762
0.32830810546875,0.59930419921875,0.65228271484375,-0.9618320465087891,5.984732627868652,4.671755790710449
0.325927734375,0.5975341796875,0.64947509765625,-0.9923664331436157,6.167938709259033,4.335877895355225
0.324462890625,0.60003662109375,0.64825439453125,-1.0305343866348267,6.351145267486572,4.938931465148926
0.32147216796875,0.5989990234375,0.649169921875,-0.694656491279602,6.610687255859375,4.938931465148926
0.317138671875,0.6011962890625,0.64947509765625,-0.7938931584358215,6.603053569793701,5.43511438369751
0.3189697265625,0.60455322265625,0.64971923828125,-0.8091602921485901,7.175572395324707,5.618320465087891
0.32525634765625,0.6029052734375,0.6483154296875,-0.7022900581359863,6.984732627868652,5.862595558166504
0.32708740234375,0.60284423828125,0.64630126953125,-0.4656488597393036,7.389312744140625,5.870229244232178
0.32696533203125,0.60101318359375,0.6444091796875,-0.8702290058135986,7.29007625579834,5.85496187210083
0.32861328125,0.60760498046875,0.6461181640625,-0.7938931584358215,7.72519063949585,5.931297779083252
0.3262939453125,0.60308837890625,0.64971923828125,-0.9160305261611938,7.946564674377441,5.938931465148926
0.32391357421875,0.602294921875,0.648193359375,-0.885496199131012,8.053435325622559,5.511450290679932
0.3231201171875,0.60430908203125,0.6502685546875,-0.7862595319747925,8.16030502319336,5.244274616241455
0.3143310546875,0.60430908203125,0.647705078125,-0.6641221642494202,7.648854732513428,5.160305500030518
0.31732177734375,0.60455322265625,0.64923095703125,-0.9007633328437805,7.343511581420898,5.015267372131348
0.31640625,0.61578369140625,0.64898681640625,-0.8091602921485901,6.27480936050415,5.404580116271973
0.318359375,0.60760498046875,0.65106201171875,-1.0992366075515747,5.671755790710449,5.351145267486572
0.3179931640625,0.60955810546875,0.65045166015625,-0.6030534505844116,4.916030406951904,5.442748069763184
0.31591796875,0.605224609375,0.64385986328125,-0.6564885377883911,4.809160232543945,5.755725383758545
0.31951904296875,0.60504150390625,0.642578125,-0.8015267252922058,4.824427604675293,5.70992374420166
0.32122802734375,0.6068115234375,0.641357421875,-0.6717557311058044,4.946564674377441,5.618320465087891
0.32305908203125,0.60943603515625,0.64666748046875,-0.8549618124961853,5.213740348815918,5.610687255859375
0.3267822265625,0.611328125,0.64501953125,-1.0229008197784424,4.786259651184082,5.748091697692871
0.330322265625,0.60565185546875,0.644775390625,-0.847328245639801,4.938931465148926,5.595419883728027
0.32598876953125,0.61090087890625,0.63946533203125,-1.0839694738388062,4.267175674438477,5.175572395324707
0.3355712890625,0.61541748046875,0.63946533203125,-1.0992366075515747,4.29007625579834,5.0916032791137695
0.337646484375,0.61505126953125,0.63824462890625,-1.3282443284988403,4.29007625579834,4.641221523284912
0.34185791015625,0.6141357421875,0.63555908203125,-1.5114504098892212,3.992366313934326,4.244274616241455
0.3341064453125,0.61260986328125,0.638916015625,-1.801526665687561,3.580152750015259,3.7022900581359863
0.3328857421875,0.6109619140625,0.63824462890625,-2.1526718139648438,3.4809160232543945,3.351145029067993
0.3365478515625,0.61163330078125,0.637939453125,-2.580152750015259,3.6870229244232178,2.9541983604431152
0.334716796875,0.6036376953125,0.6446533203125,-2.755725145339966,3.961832046508789,2.8778626918792725
0.3355712890625,0.60528564453125,0.64947509765625,-2.572519063949585,4.29007625579834,2.748091697692871
0.332275390625,0.59912109375,0.6512451171875,-2.503816843032837,4.099236488342285,2.2748091220855713
0.330322265625,0.59857177734375,0.654296875,-2.5954198837280273,3.748091697692871,2.6259541511535645
0.32708740234375,0.59161376953125,0.65142822265625,-2.4427480697631836,4.14503812789917,2.9541983604431152
0.32781982421875,0.589599609375,0.655029296875,-2.4885497093200684,4.167938709259033,3.0610687732696533
0.3260498046875,0.59161376953125,0.6578369140625,-2.3435113430023193,4.496183395385742,2.9083969593048096
0.32293701171875,0.5941162109375,0.65771484375,-2.0610687732696533,4.6946563720703125,2.85496187210083
0.32177734375,0.59552001953125,0.657958984375,-1.8244274854660034,4.618320465087891,3.358778715133667
0.3170166015625,0.59661865234375,0.65618896484375,-1.801526665687561,4.671755790710449,3.755725145339966
0.31524658203125,0.592529296875,0.65509033203125,-1.2061069011688232,4.8015265464782715,4.839694499969482
0.31341552734375,0.59490966796875,0.6556396484375,-1.229007601737976,5.335877895355225,4.931297779083252
0.32177734375,0.59686279296875,0.65411376953125,-0.9618320465087891,5.351145267486572,5.916030406951904
0.3255615234375,0.601318359375,0.656005859375,-0.8015267252922058,5.152671813964844,5.916030406951904
0.3310546875,0.60089111328125,0.6539306640625,-0.9847328066825867,5.106870174407959,5.847328186035156
0.3310546875,0.603759765625,0.64837646484375,-0.9160305261611938,4.931297779083252,5.5877861976623535
0.3330078125,0.5970458984375,0.65216064453125,-0.7404580116271973,5.175572395324707,5.648854732513428
0.32708740234375,0.5927734375,0.65045166015625,-0.8015267252922058,5.053435325622559,5.5877861976623535
0.32806396484375,0.59515380859375,0.65216064453125,-0.47328245639801025,4.938931465148926,5.450381755828857
0.3289794921875,0.59613037109375,0.6536865234375,-0.25190839171409607,5.832061290740967,5.824427604675293
0.33319091796875,0.5982666015625,0.65142822265625,-0.19083969295024872,5.793893337249756,5.946564674377441
0.33294677734375,0.59814453125,0.650634765625,0.25954198837280273,6.297709941864014,5.282442569732666
0.3370361328125,0.600341796875,0.6473388671875,0.3358778655529022,6.122137546539307,5.122137546539307
0.33282470703125,0.599365234375,0.649169921875,0.5038167834281921,6.061068534851074,5.221374034881592
0.337158203125,0.6002197265625,0.64300537109375,0.12977099418640137,6.4809160232543945,5.251908302307129
0.3369140625,0.60711669921875,0.6470947265625,0.3435114622116089,5.839694499969482,4.824427604675293
0.3326416015625,0.60333251953125,0.64422607421875,0.18320611119270325,6.068702220916748,4.541984558105469
0.3223876953125,0.60711669921875,0.6485595703125,-0.30534350872039795,5.106870174407959,4.503816604614258
0.31573486328125,0.60546875,0.65625,-0.3435114622116089,4.045801639556885,4.259541988372803
0.29486083984375,0.5989990234375,0.662109375,-0.16030533611774445,3.7709922790527344,5.29007625579834
0.2978515625,0.59423828125,0.65606689453125,0.39694657921791077,4.6259541511535645,6.381679534912109
0.31927490234375,0.5950927734375,0.649169921875,0.7862595319747925,5.3740458488464355,8.29007625579834
0.33489990234375,0.59417724609375,0.64581298828125,0.8320610523223877,5.465648651123047,8.564885139465332
0.3575439453125,0.60675048828125,0.6414794921875,0.4351145029067993,5.549618244171143,7.9083967208862305
0.3626708984375,0.6124267578125,0.63885498046875,-0.12977099418640137,4.778625965118408,5.977099418640137
0.37054443359375,0.61322021484375,0.63128662109375,-0.06106870248913765,4.58015251159668,5.076335906982422
0.36322021484375,0.6163330078125,0.6339111328125,-0.9618320465087891,4.2366414070129395,2.885496139526367
0.35552978515625,0.61663818359375,0.63409423828125,-1.2137404680252075,3.603053331375122,2.106870174407959
0.35479736328125,0.630859375,0.6199951171875,-1.6183205842971802,1.8244274854660034,1.0763359069824219
0.3538818359375,0.62164306640625,0.6217041015625,-2.419847249984741,0.7557252049446106,0.7022900581359863
0.33062744140625,0.59600830078125,0.6531982421875,-3.603053331375122,1.2595419883728027,0.030534351244568825
0.3145751953125,0.59051513671875,0.6646728515625,-3.6946563720703125,2.885496139526367,0.3664122223854065
0.2967529296875,0.59228515625,0.6715087890625,-3.007633686065674,4.14503812789917,1.0763359069824219
0.29400634765625,0.5943603515625,0.6702880859375,-2.3358778953552246,4.4122138023376465,2.1221373081207275
0.30072021484375,0.59375,0.658203125,-1.3206106424331665,5.206106662750244,3.969465732574463
0.3016357421875,0.592529296875,0.65802001953125,-1.229007601737976,5.259541988372803,4.72519063949585
0.3134765625,0.593994140625,0.655029296875,-0.5267175436019897,5.610687255859375,5.450381755828857
0.317138671875,0.59771728515625,0.65625,0.007633587811142206,5.641221523284912,5.687022686004639
0.31585693359375,0.60076904296875,0.6531982421875,0.08396946638822556,5.1984734535217285,5.931297779083252
0.32196044921875,0.59991455078125,0.6527099609375,0.6335877776145935,5.251908302307129,6.0
0.323974609375,0.6031494140625,0.6524658203125,0.8702290058135986,5.832061290740967,5.6946563720703125
0.3287353515625,0.60626220703125,0.64898681640625,0.9923664331436157,6.007633686065674,5.740458011627197
0.32684326171875,0.60345458984375,0.64556884765625,0.9312977194786072,6.106870174407959,5.251908302307129
0.33013916015625,0.60662841796875,0.6475830078125,0.9923664331436157,6.656488418579102,5.251908302307129
0.328857421875,0.60943603515625,0.64874267578125,0.847328245639801,6.778625965118408,5.442748069763184
0.3284912109375,0.60870361328125,0.64617919921875,0.8625954389572144,6.9083967208862305,5.106870174407959
0.32977294921875,0.61041259765625,0.64788818359375,0.8778625726699829,6.816793918609619,5.3053436279296875
0.331787109375,0.60711669921875,0.64404296875,0.5419847369194031,6.541984558105469,5.137404441833496
0.32879638671875,0.60772705078125,0.64208984375,0.4122137427330017,6.076335906982422,5.160305500030518
0.33416748046875,0.60772705078125,0.6435546875,0.17557251453399658,6.717557430267334,5.183206081390381
0.337646484375,0.6077880859375,0.6422119140625,0.2671755850315094,6.541984558105469,4.9083967208862305
0.33831787109375,0.60845947265625,0.64373779296875,-0.05343511328101158,6.473282337188721,4.58015251159668
0.33538818359375,0.604736328125,0.6468505859375,-0.19083969295024872,6.068702220916748,4.389312744140625
0.335205078125,0.60491943359375,0.6463623046875,-0.25954198837280273,5.946564674377441,4.450381755828857
0.3314208984375,0.6048583984375,0.64794921875,-0.572519063949585,6.404580116271973,4.832061290740967
0.3311767578125,0.5989990234375,0.6490478515625,-0.47328245639801025,6.534351348876953,4.732824325561523
0.33282470703125,0.59942626953125,0.64923095703125,-0.7175572514533997,6.312977313995361,5.175572395324707
0.3287353515625,0.603271484375,0.6500244140625,-0.9160305261611938,6.366412162780762,4.9083967208862305
0.32928466796875,0.598388671875,0.65264892578125,-0.45038166642189026,6.488549709320068,5.282442569732666
0.32568359375,0.5946044921875,0.6536865234375,-0.7175572514533997,6.541984558105469,5.381679534912109
0.32977294921875,0.5946044921875,0.65826416015625,-0.5496183037757874,6.809160232543945,5.656488418579102
0.330078125,0.59307861328125,0.65692138671875,-0.25954198837280273,7.007633686065674,5.961832046508789
0.33612060546875,0.59674072265625,0.65020751953125,-0.015267175622284412,7.007633686065674,6.251908302307129
0.33648681640625,0.59930419921875,0.651611328125,0.015267175622284412,7.083969593048096,6.29007625579834
0.33673095703125,0.59967041015625,0.650634765625,0.3893129825592041,6.969465732574463,6.213740348815918
0.3358154296875,0.6009521484375,0.6473388671875,0.16030533611774445,7.56488561630249,6.167938709259033
0.34051513671875,0.59906005859375,0.64990234375,0.2977099120616913,7.526717662811279,6.167938709259033
0.33551025390625,0.60357666015625,0.64678955078125,0.35114502906799316,7.251908302307129,5.832061290740967
0.33868408203125,0.60693359375,0.64544677734375,0.5419847369194031,7.2366414070129395,5.900763511657715
0.3363037109375,0.60821533203125,0.644287109375,0.32824426889419556,7.4122138023376465,5.633587837219238
0.33245849609375,0.608642578125,0.64520263671875,0.20610687136650085,7.526717662811279,5.618320465087891
0.33404541015625,0.60943603515625,0.64459228515625,0.030534351244568825,6.992366313934326,5.160305500030518
0.3289794921875,0.60845947265625,0.648193359375,-0.06106870248913765,7.038167953491211,5.282442569732666
0.3243408203125,0.60986328125,0.64801025390625,-0.10687022656202316,6.641221523284912,5.282442569732666
0.329345703125,0.6083984375,0.64697265625,-0.23664122819900513,7.061068534851074,5.526717662811279
0.33526611328125,0.6083984375,0.64495849609375,-0.22900763154029846,6.488549709320068,5.755725383758545
0.33197021484375,0.60919189453125,0.645263671875,-0.20610687136650085,6.335877895355225,5.610687255859375
0.337646484375,0.6060791015625,0.64306640625,-0.6259542107582092,6.022900581359863,5.549618244171143
0.34173583984375,0.60418701171875,0.64337158203125,-0.7099236845970154,6.152671813964844,5.328244209289551
0.34027099609375,0.6048583984375,0.6431884765625,-0.6717557311058044,6.221374034881592,5.045801639556885
0.33978271484375,0.6053466796875,0.64227294921875,-1.0763359069824219,6.14503812789917,4.557251930236816
0.3330078125,0.6044921875,0.642578125,-0.8931297659873962,5.984732627868652,4.4809160232543945
0.336181640625,0.6044921875,0.64312744140625,-0.9770992398262024,6.045801639556885,4.14503812789917
0.3270263671875,0.598876953125,0.64453125,-1.0916030406951904,5.862595558166504,4.351145267486572
0.32696533203125,0.59613037109375,0.64593505859375,-1.0076335668563843,5.885496139526367,4.328244209289551
0.3262939453125,0.59716796875,0.648681640625,-1.1832060813903809,5.816793918609619,4.839694499969482
0.32427978515625,0.59765625,0.64874267578125,-0.7557252049446106,5.717557430267334,5.167938709259033
0.33184814453125,0.59417724609375,0.6514892578125,-0.48091602325439453,5.717557430267334,5.129770755767822
0.33441162109375,0.59454345703125,0.64715576171875,-0.49618321657180786,6.030534267425537,5.2366414070129395
0.3338623046875,0.595458984375,0.646240234375,-0.5267175436019897,5.931297779083252,5.664122104644775
0.3338623046875,0.5921630859375,0.64703369140625,-0.4122137427330017,6.381679534912109,5.832061290740967
0.34100341796875,0.59222412109375,0.6473388671875,-0.5648854970932007,6.160305500030518,5.809160232543945
0.34246826171875,0.5926513671875,0.64996337890625,-0.6641221642494202,5.984732627868652,5.862595558166504
0.34539794921875,0.59649658203125,0.645263671875,-0.49618321657180786,5.946564674377441,5.534351348876953
0.34307861328125,0.59478759765625,0.647216796875,-0.6183205842971802,5.6946563720703125,5.175572395324707
0.34197998046875,0.59332275390625,0.64837646484375,-0.6641221642494202,5.969465732574463,4.870229244232178
0.34478759765625,0.5947265625,0.6419677734375,-0.6488549709320068,5.809160232543945,4.893129825592041
0.35504150390625,0.5977783203125,0.638916015625,-0.7251908183097839,6.366412162780762,4.946564674377441
0.3646240234375,0.60107421875,0.6395263671875,-0.7480915784835815,6.175572395324707,4.503816604614258
0.367919921875,0.60369873046875,0.6353759765625,-1.198473334312439,5.72519063949585,3.603053331375122
0.35797119140625,0.60198974609375,0.63665771484375,-1.5954198837280273,5.923664093017578,3.3358778953552246
0.35198974609375,0.603759765625,0.64312744140625,-1.7175573110580444,5.664122104644775,2.2977099418640137
0.35015869140625,0.60284423828125,0.6455078125,-1.893129825592041,5.992366313934326,2.1297709941864014
0.335693359375,0.5997314453125,0.64581298828125,-2.007633686065674,6.167938709259033,1.9847328662872314
0.3330078125,0.59954833984375,0.64752197265625,-2.0916030406951904,5.6259541511535645,1.6793893575668335
0.32220458984375,0.5985107421875,0.64886474609375,-1.9007633924484253,6.0,2.2595419883728027
0.31903076171875,0.5928955078125,0.64678955078125,-1.7557251453399658,5.656488418579102,2.4427480697631836
0.314697265625,0.5936279296875,0.65118408203125,-1.6335878372192383,5.664122104644775,2.8396947383880615
0.31207275390625,0.593505859375,0.65533447265625,-1.6793893575668335,5.9083967208862305,3.320610761642456
0.31195068359375,0.59393310546875,0.65753173828125,-1.4351145029067993,6.137404441833496,3.778625965118408
0.31549072265625,0.59759521484375,0.65570068359375,-0.6793892979621887,6.687022686004639,4.061068534851074
0.3157958984375,0.59967041015625,0.65399169921875,-0.5190839767456055,6.992366313934326,4.244274616241455
0.31689453125,0.59906005859375,0.65020751953125,-0.09160305559635162,6.671755790710449,4.549618244171143
0.319580078125,0.6014404296875,0.64703369140625,0.07633587718009949,6.717557430267334,4.541984558105469
0.3189697265625,0.599365234375,0.64935302734375,0.2671755850315094,6.778625965118408,4.6946563720703125
0.31854248046875,0.60064697265625,0.64581298828125,0.5648854970932007,7.0,5.099236488342285
0.3270263671875,0.60546875,0.64739990234375,0.4198473393917084,7.137404441833496,5.251908302307129
0.330078125,0.60980224609375,0.6458740234375,0.3358778655529022,6.893129825592041,5.343511581420898
0.335205078125,0.60638427734375,0.6431884765625,0.6412213444709778,6.488549709320068,5.450381755828857
0.33837890625,0.60748291015625,0.64404296875,0.18320611119270325,6.770992279052734,5.267175674438477
0.34246826171875,0.60107421875,0.641845703125,0.022900763899087906,7.106870174407959,4.954198360443115
0.34552001953125,0.60333251953125,0.6427001953125,0.08396946638822556,6.793893337249756,4.595419883728027
0.34515380859375,0.60406494140625,0.64013671875,-0.2671755850315094,6.5190839767456055,4.3053436279296875
0.34375,0.60552978515625,0.6409912109375,-0.4198473393917084,6.740458011627197,4.152671813964844
0.3475341796875,0.60662841796875,0.642578125,-0.5419847369194031,6.6946563720703125,3.755725145339966
0.34332275390625,0.6041259765625,0.64288330078125,-0.8931297659873962,6.244274616241455,3.396946668624878
0.345703125,0.6005859375,0.64404296875,-0.732824444770813,6.122137546539307,3.0534350872039795
0.3438720703125,0.6015625,0.643310546875,-1.0687023401260376,5.755725383758545,3.320610761642456
0.34100341796875,0.5985107421875,0.6466064453125,-1.1908396482467651,5.862595558166504,3.0534350872039795
0.34173583984375,0.59881591796875,0.6474609375,-1.0152671337127686,5.702290058135986,2.7404580116271973
0.3397216796875,0.5972900390625,0.646484375,-1.0610686540603638,5.877862453460693,2.7633588314056396
0.33831787109375,0.59716796875,0.6494140625,-1.465648889541626,5.877862453460693,2.6335878372192383
0.33612060546875,0.597412109375,0.64947509765625,-1.2900763750076294,6.122137546539307,2.7633588314056396
0.3372802734375,0.600830078125,0.65301513671875,-1.0687023401260376,5.732824325561523,2.6335878372192383
0.3392333984375,0.60015869140625,0.6512451171875,-1.3664121627807617,5.740458011627197,2.6335878372192383
0.33709716796875,0.6026611328125,0.65008544921875,-1.3282443284988403,5.847328186035156,2.7633588314056396
0.33258056640625,0.6024169921875,0.65155029296875,-1.0992366075515747,6.14503812789917,2.5267176628112793
0.33258056640625,0.5965576171875,0.6497802734375,-1.1832060813903809,6.076335906982422,3.1679389476776123
0.32763671875,0.59674072265625,0.64947509765625,-1.2748091220855713,6.076335906982422,3.1679389476776123
0.3260498046875,0.60162353515625,0.6517333984375,-1.122137427330017,6.022900581359863,3.5572519302368164
0.32354736328125,0.60113525390625,0.65814208984375,-0.9236640930175781,6.557251930236816,4.030534267425537
0.32513427734375,0.60272216796875,0.65606689453125,-0.9389312863349915,6.793893337249756,3.931297779083252
0.32208251953125,0.60009765625,0.6533203125,-1.0229008197784424,7.213740348815918,4.328244209289551
0.3243408203125,0.5999755859375,0.649658203125,-0.7709923386573792,7.320610523223877,4.450381755828857
0.326171875,0.60003662109375,0.64874267578125,-0.3206106722354889,7.27480936050415,4.511450290679932
0.322998046875,0.60089111328125,0.65380859375,-0.08396946638822556,7.343511581420898,4.381679534912109
0.32037353515625,0.60357666015625,0.65533447265625,-0.19083969295024872,7.114503860473633,4.641221523284912
0.3212890625,0.60394287109375,0.64752197265625,-0.030534351244568825,6.969465732574463,4.793893337249756
0.32330322265625,0.60369873046875,0.6475830078125,-0.10687022656202316,6.702290058135986,4.931297779083252
0.32672119140625,0.6024169921875,0.64825439453125,0.25954198837280273,6.786259651184082,5.251908302307129
0.32904052734375,0.60260009765625,0.64508056640625,0.5648854970932007,7.068702220916748,5.160305500030518
0.33203125,0.60211181640625,0.64764404296875,0.3435114622116089,7.106870174407959,5.43511438369751
0.33062744140625,0.60552978515625,0.6441650390625,0.1221374049782753,7.450381755828857,5.381679534912109
0.3323974609375,0.60516357421875,0.6435546875,0.290076345205307,7.450381755828857,5.3053436279296875
0.338623046875,0.6051025390625,0.64105224609375,0.25190839171409607,7.083969593048096,5.27480936050415
0.3380126953125,0.60467529296875,0.6387939453125,0.20610687136650085,6.893129825592041,5.396946430206299
0.33563232421875,0.6025390625,0.63983154296875,0.290076345205307,6.793893337249756,5.129770755767822
0.3349609375,0.5997314453125,0.64349365234375,-0.08396946638822556,6.984732627868652,5.045801639556885
0.3411865234375,0.6046142578125,0.64544677734375,-0.015267175622284412,7.152671813964844,4.992366313934326
0.335693359375,0.60504150390625,0.64422607421875,0.10687022656202316,7.213740348815918,4.870229244232178
0.33819580078125,0.60443115234375,0.6424560546875,0.05343511328101158,7.267175674438477,4.9083967208862305
0.33935546875,0.60302734375,0.64715576171875,-0.10687022656202316,7.328244209289551,4.618320465087891
0.3377685546875,0.60064697265625,0.64617919921875,-0.35114502906799316,7.351145267486572,5.022900581359863
0.34185791015625,0.6009521484375,0.64471435546875,-0.49618321657180786,7.557251930236816,4.687022686004639
0.340087890625,0.6015625,0.6473388671875,-0.25954198837280273,7.870229244232178,4.648854732513428
0.33831787109375,0.59942626953125,0.6456298828125,-0.30534350872039795,8.09160327911377,4.572519302368164
0.33978271484375,0.5947265625,0.6434326171875,-0.40458014607429504,8.145038604736328,4.839694499969482
0.33624267578125,0.5970458984375,0.6414794921875,-0.038167938590049744,7.893129825592041,4.847328186035156
0.34051513671875,0.60186767578125,0.6392822265625,-0.5114504098892212,7.832061290740967,4.618320465087891
0.33990478515625,0.6007080078125,0.64404296875,-0.30534350872039795,7.732824325561523,4.603053569793701
0.33441162109375,0.6009521484375,0.6456298828125,-0.45038166642189026,7.839694499969482,4.503816604614258
0.32525634765625,0.5947265625,0.64971923828125,-0.40458014607429504,7.557251930236816,4.549618244171143
0.3270263671875,0.593994140625,0.65289306640625,-0.23664122819900513,7.458015441894531,5.007633686065674
0.32989501953125,0.597412109375,0.65887451171875,0.09160305559635162,7.740458011627197,5.396946430206299
0.323486328125,0.60186767578125,0.65240478515625,0.221374049782753,7.977099418640137,5.656488418579102
0.3253173828125,0.5994873046875,0.64825439453125,0.18320611119270325,8.038167953491211,5.984732627868652
0.322021484375,0.60125732421875,0.650390625,0.39694657921791077,7.969465732574463,6.503816604614258
0.3226318359375,0.60284423828125,0.65185546875,0.007633587811142206,8.137404441833496,6.541984558105469
0.3232421875,0.6026611328125,0.64959716796875,0.5190839767456055,8.038167953491211,6.992366313934326
0.3238525390625,0.60321044921875,0.64849853515625,0.442748099565506,8.427480697631836,6.984732627868652
0.3282470703125,0.60382080078125,0.650634765625,1.0076335668563843,8.061068534851074,7.015267372131348
0.33563232421875,0.6102294921875,0.650146484375,0.8167939186096191,7.603053569793701,7.068702220916748
0.3388671875,0.61419677734375,0.64410400390625,0.6870229244232178,8.061068534851074,6.312977313995361
0.33831787109375,0.61407470703125,0.6427001953125,0.5572519302368164,7.557251930236816,6.022900581359863
0.3331298828125,0.61322021484375,0.6417236328125,0.35114502906799316,7.58015251159668,6.007633686065674
0.334228515625,0.6175537109375,0.6451416015625,0.007633587811142206,7.961832046508789,5.442748069763184
0.341552734375,0.6136474609375,0.64093017578125,0.07633587718009949,8.297709465026855,5.022900581359863
0.33758544921875,0.605712890625,0.63946533203125,-0.022900763899087906,8.595419883728027,4.3740458488464355
0.34765625,0.6116943359375,0.63031005859375,-0.3206106722354889,8.58015251159668,4.244274616241455
0.3446044921875,0.61297607421875,0.63482666015625,-1.229007601737976,8.0,3.748091697692871
0.33929443359375,0.6124267578125,0.63568115234375,-1.4427480697631836,7.4122138023376465,3.6564886569976807
0.33367919921875,0.60552978515625,0.6466064453125,-1.9007633924484253,6.984732627868652,3.389312982559204
0.33380126953125,0.60107421875,0.65185546875,-1.8473281860351562,7.045801639556885,3.1679389476776123
0.3271484375,0.59576416015625,0.65289306640625,-1.4427480697631836,7.458015441894531,3.183206081390381
0.3251953125,0.59149169921875,0.652099609375,-1.4198473691940308,7.862595558166504,3.0229008197784424
0.32049560546875,0.58929443359375,0.65411376953125,-1.0229008197784424,8.244275093078613,3.5267176628112793
0.315673828125,0.5911865234375,0.65655517578125,-0.4351145029067993,8.183206558227539,3.816793918609619
0.31634521484375,0.59356689453125,0.65692138671875,-0.40458014607429504,8.122137069702148,4.687022686004639
0.32037353515625,0.59307861328125,0.65484619140625,0.030534351244568825,7.862595558166504,5.129770755767822
0.3236083984375,0.5867919921875,0.65765380859375,0.39694657921791077,8.068702697753906,5.27480936050415
0.32373046875,0.59075927734375,0.6580810546875,0.8625954389572144,8.305343627929688,5.664122104644775
0.32525634765625,0.59368896484375,0.65216064453125,0.8778625726699829,8.41984748840332,5.755725383758545
0.32501220703125,0.59808349609375,0.65167236328125,0.3893129825592041,8.297709465026855,6.2366414070129395
0.33251953125,0.60186767578125,0.6500244140625,0.5343511700630188,8.09160327911377,6.099236488342285
0.33056640625,0.60076904296875,0.65020751953125,0.5114504098892212,8.137404441833496,6.251908302307129
0.33331298828125,0.60003662109375,0.649169921875,0.5190839767456055,8.251908302307129,6.4809160232543945
0.33905029296875,0.6015625,0.6439208984375,0.8702290058135986,8.305343627929688,6.7633585929870605
0.33990478515625,0.60302734375,0.64093017578125,0.8396946787834167,8.969465255737305,6.961832046508789
0.34222412109375,0.60321044921875,0.643310546875,0.4122137427330017,8.900763511657715,6.244274616241455
0.34228515625,0.6026611328125,0.642333984375,0.19847328960895538,9.053435325622559,6.282442569732666
0.3394775390625,0.60040283203125,0.64031982421875,0.30534350872039795,8.412213325500488,5.816793918609619
0.336669921875,0.59930419921875,0.64617919921875,0.015267175622284412,8.068702697753906,5.778625965118408
0.3375244140625,0.598388671875,0.6492919921875,-0.022900763899087906,7.893129825592041,5.206106662750244
0.3363037109375,0.5977783203125,0.65093994140625,0.19083969295024872,7.740458011627197,5.175572395324707
0.33038330078125,0.59552001953125,0.64617919921875,-0.17557251453399658,7.4809160232543945,5.366412162780762
0.3309326171875,0.5982666015625,0.6494140625,-0.030534351244568825,7.282442569732666,5.6946563720703125
0.325439453125,0.604736328125,0.65380859375,-0.16030533611774445,6.877862453460693,5.969465732574463
0.32659912109375,0.60382080078125,0.65106201171875,0.007633587811142206,7.045801639556885,6.0916032791137695
0.32763671875,0.6002197265625,0.6534423828125,0.022900763899087906,6.732824325561523,6.320610523223877
0.321044921875,0.594482421875,0.65771484375,0.19083969295024872,7.488549709320068,6.56488561630249
0.32183837890625,0.593994140625,0.65411376953125,0.2442748099565506,7.473282337188721,6.870229244232178
0.32513427734375,0.5904541015625,0.65576171875,0.6717557311058044,7.809160232543945,7.572519302368164
0.322509765625,0.59173583984375,0.65655517578125,0.8396946787834167,7.8015265464782715,7.862595558166504
0.32318115234375,0.59295654296875,0.6551513671875,0.7786259651184082,7.9083967208862305,8.41984748840332
0.32440185546875,0.592529296875,0.66082763671875,1.1297709941864014,7.72519063949585,8.824427604675293
0.3267822265625,0.597412109375,0.65728759765625,1.3435114622116089,7.931297779083252,8.473282814025879
0.3250732421875,0.59588623046875,0.6556396484375,1.4580153226852417,7.7633585929870605,8.854961395263672
0.32501220703125,0.6044921875,0.64947509765625,1.610687017440796,8.206107139587402,8.740458488464355
0.323486328125,0.603515625,0.6492919921875,2.0229008197784424,8.190839767456055,8.877862930297852
0.31634521484375,0.60284423828125,0.650634765625,1.5954198837280273,8.061068534851074,9.4503812789917
0.31591796875,0.6004638671875,0.6534423828125,2.030534267425537,8.496183395385742,9.648855209350586
0.31915283203125,0.60333251953125,0.652099609375,2.0610687732696533,8.396946907043457,9.900763511657715
0.32659912109375,0.6048583984375,0.6519775390625,2.320610761642456,8.473282814025879,10.007633209228516
0.3277587890625,0.6025390625,0.64794921875,2.0458016395568848,8.335877418518066,10.229007720947266
0.3310546875,0.60205078125,0.65081787109375,1.8625954389572144,8.435114860534668,10.137404441833496
0.3333740234375,0.60186767578125,0.65057373046875,2.106870174407959,8.61832046508789,10.4503812789917
0.330810546875,0.6011962890625,0.65216064453125,1.877862572669983,8.122137069702148,10.236640930175781
0.32562255859375,0.60504150390625,0.64984130859375,1.8854961395263672,8.32824420928955,9.816793441772461
0.33367919921875,0.6026611328125,0.6478271484375,2.0916030406951904,8.122137069702148,9.412213325500488
0.3321533203125,0.60247802734375,0.644775390625,1.732824444770813,8.068702697753906,9.29007625579834
0.3348388671875,0.598876953125,0.6435546875,1.839694619178772,7.870229244232178,9.312976837158203
0.33251953125,0.59942626953125,0.64312744140625,1.8625954389572144,7.6259541511535645,9.038167953491211
0.33612060546875,0.59765625,0.64532470703125,1.3969465494155884,7.595419883728027,9.022900581359863
0.34075927734375,0.6026611328125,0.64556884765625,1.412213683128357,7.259541988372803,8.931297302246094
0.3441162109375,0.60528564453125,0.6417236328125,1.5267175436019897,7.038167953491211,8.732824325561523
0.342529296875,0.60443115234375,0.64215087890625,0.9083969593048096,6.465648651123047,8.106870651245117
0.34149169921875,0.59893798828125,0.6419677734375,1.198473334312439,6.030534267425537,7.717557430267334
0.3365478515625,0.6014404296875,0.64178466796875,1.038167953491211,6.603053569793701,7.511450290679932
0.33941650390625,0.600830078125,0.644287109375,1.0916030406951904,6.85496187210083,7.358778476715088
0.334228515625,0.60296630859375,0.64239501953125,1.0534350872039795,6.312977313995361,7.358778476715088
0.3353271484375,0.6068115234375,0.642333984375,0.847328245639801,6.206106662750244,7.664122104644775
0.3433837890625,0.601318359375,0.64013671875,0.6793892979621887,5.7633585929870605,7.351145267486572
0.34259033203125,0.6004638671875,0.6400146484375,0.9618320465087891,5.702290058135986,7.160305500030518
0.34832763671875,0.60113525390625,0.64019775390625,0.6793892979621887,5.954198360443115,6.85496187210083
0.34771728515625,0.60272216796875,0.6380615234375,0.37404578924179077,5.6259541511535645,6.320610523223877
0.341796875,0.6004638671875,0.6405029296875,0.5496183037757874,5.5877861976623535,5.603053569793701
0.33831787109375,0.5980224609375,0.6419677734375,0.038167938590049744,5.687022686004639,5.312977313995361
0.334228515625,0.6029052734375,0.64263916015625,0.35877862572669983,5.839694499969482,5.27480936050415
0.337890625,0.60272216796875,0.64556884765625,0.4122137427330017,6.076335906982422,5.022900581359863
0.33575439453125,0.603515625,0.63775634765625,0.3435114622116089,5.984732627868652,4.893129825592041
0.3341064453125,0.6075439453125,0.6336669921875,0.4885496199131012,6.221374034881592,4.885496139526367
0.331787109375,0.60430908203125,0.638916015625,0.290076345205307,5.778625965118408,4.786259651184082
0.33251953125,0.6053466796875,0.63946533203125,-0.28244274854660034,6.27480936050415,4.267175674438477
0.33160400390625,0.60772705078125,0.63861083984375,-0.221374049782753,6.129770755767822,4.152671813964844
0.32489013671875,0.60546875,0.6396484375,-0.4351145029067993,6.251908302307129,4.267175674438477
0.32891845703125,0.6072998046875,0.63653564453125,-0.7251908183097839,5.961832046508789,4.557251930236816
0.32904052734375,0.6077880859375,0.6361083984375,-1.0916030406951904,6.244274616241455,4.43511438369751
0.33099365234375,0.6080322265625,0.637939453125,-1.267175555229187,6.610687255859375,4.381679534912109
0.32861328125,0.61285400390625,0.636474609375,-1.5572519302368164,7.175572395324707,4.786259651184082
0.32763671875,0.6126708984375,0.631591796875,-1.9694656133651733,6.870229244232178,4.770992279052734
0.3280029296875,0.62213134765625,0.62591552734375,-2.7709922790527344,7.717557430267334,4.6259541511535645
0.33282470703125,0.6280517578125,0.628173828125,-3.427480936050415,7.870229244232178,4.946564674377441
0.32965087890625,0.62945556640625,0.6318359375,-3.893129825592041,8.152671813964844,4.893129825592041
0.3355712890625,0.62982177734375,0.630615234375,-4.656488418579102,8.465648651123047,4.954198360443115
0.341796875,0.62567138671875,0.62646484375,-5.053435325622559,8.076335906982422,4.770992279052734
0.33917236328125,0.6270751953125,0.6263427734375,-6.083969593048096,8.90839672088623,4.27480936050415
0.344482421875,0.62738037109375,0.62298583984375,-6.664122104644775,9.297709465026855,4.015267372131348
0.34246826171875,0.6351318359375,0.6239013671875,-7.4809160232543945,9.969465255737305,3.175572633743286
0.33892822265625,0.634765625,0.6302490234375,-8.137404441833496,10.152671813964844,2.7709922790527344
0.32098388671875,0.6436767578125,0.64410400390625,-8.793892860412598,10.4503812789917,2.14503812789917
0.313232421875,0.648193359375,0.653564453125,-8.977099418640137,11.412213325500488,2.389312982559204
0.325927734375,0.63970947265625,0.66204833984375,-7.816793918609619,15.206107139587402,2.1679389476776123
0.3299560546875,0.6348876953125,0.64776611328125,-7.175572395324707,17.854961395263672,2.351145029067993
0.337158203125,0.6422119140625,0.62445068359375,-7.099236488342285,19.93893051147461,3.0610687732696533
0.34466552734375,0.6434326171875,0.61273193359375,-7.2366414070129395,20.22137451171875,3.9770991802215576
0.343017578125,0.64892578125,0.61700439453125,-8.473282814025879,20.854961395263672,4.099236488342285
0.34405517578125,0.6453857421875,0.62261962890625,-9.175572395324707,22.244274139404297,5.106870174407959
0.33319091796875,0.62835693359375,0.634033203125,-9.541984558105469,23.076335906982422,5.618320465087891
0.32861328125,0.62152099609375,0.63934326171875,-9.389312744140625,24.19847297668457,8.152671813964844
0.3475341796875,0.6085205078125,0.63189697265625,-9.137404441833496,24.633586883544922,9.32824420928955
0.36553955078125,0.5948486328125,0.62939453125,-9.267175674438477,26.045801162719727,11.167939186096191
0.37017822265625,0.58935546875,0.63714599609375,-9.427480697631836,26.893129348754883,11.32824420928955
0.36474609375,0.566162109375,0.665771484375,-8.572519302368164,31.755725860595703,11.969465255737305
0.352783203125,0.57025146484375,0.672607421875,-7.839694499969482,34.290077209472656,12.770992279052734
0.3570556640625,0.58953857421875,0.6519775390625,-5.038167953491211,32.66412353515625,14.122137069702148
0.35125732421875,0.58978271484375,0.64739990234375,-3.755725145339966,31.244274139404297,15.007633209228516
0.3515625,0.58404541015625,0.64300537109375,-2.1297709941864014,28.97709846496582,17.412214279174805
0.353271484375,0.58135986328125,0.6422119140625,-1.7557251453399658,28.213741302490234,18.496183395385742
0.34765625,0.58148193359375,0.661865234375,-1.14503812789917,27.45801544189453,20.465648651123047
0.3470458984375,0.576416015625,0.67498779296875,0.5419847369194031,27.824426651000977,22.511449813842773
0.341064453125,0.57061767578125,0.6806640625,1.5572519302368164,28.610687255859375,23.351144790649414
0.345458984375,0.57421875,0.67462158203125,3.2671756744384766,29.847328186035156,25.251909255981445
0.35400390625,0.58013916015625,0.6728515625,4.213740348815918,30.007633209228516,25.59541893005371
0.3568115234375,0.58197021484375,0.675048828125,5.8015265464782715,29.12213706970215,26.702289581298828
0.34857177734375,0.586181640625,0.69647216796875,6.862595558166504,27.61832046508789,26.633586883544922
0.338623046875,0.5833740234375,0.65850830078125,8.992366790771484,27.03816795349121,28.366413116455078
0.34375,0.57147216796875,0.64385986328125,9.015267372131348,28.030534744262695,29.23664093017578
0.35894775390625,0.5662841796875,0.645751953125,7.450381755828857,29.412214279174805,30.251909255981445
0.3648681640625,0.5677490234375,0.6533203125,6.954198360443115,29.328245162963867,30.54198455810547
0.37225341796875,0.58477783203125,0.6861572265625,6.847328186035156,28.3435115814209,30.64122200012207
0.36578369140625,0.58673095703125,0.6832275390625,8.702290534973145,29.305343627929688,30.76335906982422
0.36279296875,0.584716796875,0.6549072265625,9.038167953491211,29.137405395507812,31.389312744140625
0.35772705078125,0.58148193359375,0.6480712890625,8.022900581359863,29.068702697753906,31.244274139404297
0.36627197265625,0.57122802734375,0.656982421875,6.282442569732666,28.23664093017578,32.167938232421875
0.37493896484375,0.56988525390625,0.66387939453125,5.473282337188721,27.885496139526367,32.09160232543945
0.37750244140625,0.568603515625,0.67138671875,5.541984558105469,27.6564884185791,31.732824325561523
0.3680419921875,0.5699462890625,0.67535400390625,5.328244209289551,27.335878372192383,31.145038604736328
0.36297607421875,0.56427001953125,0.6868896484375,5.641221523284912,26.931297302246094,30.786258697509766
0.3516845703125,0.559814453125,0.6893310546875,6.43511438369751,25.992366790771484,30.81679344177246
0.33599853515625,0.56634521484375,0.678955078125,6.793893337249756,26.145038604736328,31.053434371948242
0.3353271484375,0.571044921875,0.6668701171875,6.030534267425537,26.190839767456055,31.503816604614258
0.33642578125,0.56890869140625,0.666015625,5.297709941864014,26.38167953491211,31.374046325683594
0.328369140625,0.55157470703125,0.67718505859375,3.8091602325439453,26.96183204650879,30.687023162841797
0.31884765625,0.5479736328125,0.68505859375,3.465648889541626,27.54198455810547,31.35877799987793
0.31646728515625,0.54705810546875,0.68896484375,3.8778626918792725,27.03816795349121,33.82442855834961
0.31414794921875,0.5439453125,0.682861328125,4.404580116271973,26.335878372192383,35.64122009277344
0.3223876953125,0.54296875,0.6751708984375,4.595419883728027,25.297710418701172,39.01526641845703
0.32666015625,0.53985595703125,0.6761474609375,4.687022686004639,25.190839767456055,40.46564865112305
0.33306884765625,0.5361328125,0.67852783203125,4.4122138023376465,24.81679344177246,43.374046325683594
0.33062744140625,0.53961181640625,0.68060302734375,4.946564674377441,23.969465255737305,44.946563720703125
0.3314208984375,0.54217529296875,0.6898193359375,5.458015441894531,23.694656372070312,45.893131256103516
0.32806396484375,0.544189453125,0.6875,6.061068534851074,22.496183395385742,47.19083786010742
0.32928466796875,0.543212890625,0.68402099609375,6.358778476715088,22.244274139404297,47.770992279052734
0.32672119140625,0.54541015625,0.68524169921875,6.488549709320068,21.129770278930664,47.6870231628418
0.314453125,0.543701171875,0.681396484375,6.664122104644775,20.83969497680664,47.25954055786133
0.30572509765625,0.54901123046875,0.68359375,7.045801639556885,19.80152702331543,46.63358688354492
0.3021240234375,0.549560546875,0.6829833984375,7.183206081390381,19.076335906982422,46.511451721191406
0.3001708984375,0.5506591796875,0.68316650390625,7.328244209289551,17.511449813842773,46.610687255859375
0.29254150390625,0.5516357421875,0.6790771484375,7.496183395385742,16.946565628051758,46.30534362792969
0.2938232421875,0.55450439453125,0.6759033203125,7.618320465087891,15.603053092956543,46.71755599975586
0.28887939453125,0.5614013671875,0.678466796875,7.977099418640137,14.587786674499512,46.992366790771484
0.2962646484375,0.56756591796875,0.6768798828125,8.236640930175781,13.58015251159668,47.22137451171875
0.2996826171875,0.57171630859375,0.6744384765625,8.274808883666992,13.274808883666992,47.671756744384766
0.30377197265625,0.578125,0.66925048828125,7.931297779083252,13.175572395324707,47.64885330200195
0.30810546875,0.580078125,0.6673583984375,7.793893337249756,12.213740348815918,47.656490325927734
0.319580078125,0.58172607421875,0.6563720703125,7.534351348876953,12.083969116210938,47.35877990722656
0.32855224609375,0.58648681640625,0.65216064453125,6.832061290740967,10.4503812789917,46.09160232543945
0.34503173828125,0.5960693359375,0.6434326171875,5.9083967208862305,10.137404441833496,45.02289962768555
0.34552001953125,0.5958251953125,0.63800048828125,4.557251930236816,8.41984748840332,42.992366790771484
0.3521728515625,0.60223388671875,0.63299560546875,3.755725145339966,7.839694499969482,42.04580307006836
0.35198974609375,0.60443115234375,0.63385009765625,2.5267176628112793,6.045801639556885,40.08396911621094
0.3587646484375,0.60528564453125,0.63323974609375,1.8320610523223877,5.381679534912109,39.3129768371582
0.35601806640625,0.6046142578125,0.6279296875,0.4656488597393036,4.679389476776123,38.488548278808594
0.3583984375,0.599609375,0.6282958984375,-0.47328245639801025,4.221374034881592,38.114501953125
0.36138916015625,0.59930419921875,0.628662109375,-1.6488549709320068,4.160305500030518,38.12213897705078
0.36590576171875,0.60028076171875,0.63201904296875,-2.221374034881592,3.9160306453704834,38.389312744140625
0.36773681640625,0.58953857421875,0.63543701171875,-3.244274854660034,4.526717662811279,38.23664093017578
0.3642578125,0.5843505859375,0.633544921875,-3.4503817558288574,4.824427604675293,38.22137451171875
0.36090087890625,0.5814208984375,0.635498046875,-3.9083969593048096,4.557251930236816,39.19083786010742
0.3719482421875,0.58892822265625,0.64044189453125,-4.29007625579834,5.114503860473633,38.96946716308594
0.3836669921875,0.59625244140625,0.6373291015625,-4.312977313995361,5.007633686065674,38.13740539550781
0.39068603515625,0.5980224609375,0.63323974609375,-4.893129825592041,4.679389476776123,36.19083786010742
0.3834228515625,0.5982666015625,0.6378173828125,-5.511450290679932,4.267175674438477,35.511451721191406
0.3724365234375,0.5921630859375,0.6502685546875,-6.053435325622559,3.7251908779144287,33.931297302246094
0.36224365234375,0.59808349609375,0.65325927734375,-6.152671813964844,3.1908397674560547,33.50381851196289
0.3411865234375,0.6163330078125,0.65533447265625,-6.404580116271973,2.29007625579834,33.49618148803711
0.32843017578125,0.6202392578125,0.66009521484375,-6.641221523284912,1.4198473691940308,34.04580307006836
0.30377197265625,0.63592529296875,0.63592529296875,-7.061068534851074,0.12977099418640137,36.90076446533203
0.24383544921875,0.63787841796875,0.5911865234375,-8.473282814025879,-1.3206106424331665,40.03053283691406
-0.13714599609375,0.7371826171875,0.640625,-18.114503860473633,-17.41984748840332,71.96183013916016
-0.101318359375,0.77349853515625,0.68463134765625,-16.4427490234375,-36.106868743896484,105.41221618652344
0.18505859375,0.7664794921875,0.6544189453125,-6.839694499969482,-50.45801544189453,154.1908416748047
0.2960205078125,0.7548828125,0.59765625,-7.923664093017578,-43.63358688354492,169.9770965576172
0.467529296875,0.679443359375,0.45440673828125,-12.465648651123047,-38.3129768371582,169.83969116210938
0.54608154296875,0.63629150390625,0.42926025390625,-24.06106948852539,-24.969465255737305,159.74046325683594
0.67340087890625,0.57537841796875,0.50592041015625,-28.51908302307129,-16.824426651000977,150.06869506835938
0.7091064453125,0.55731201171875,0.5592041015625,-31.091602325439453,-1.9465649127960205,125.9312973022461
0.75537109375,0.57354736328125,0.609619140625,-30.091602325439453,1.5801526308059692,111.80152893066406
0.674560546875,0.6180419921875,0.64483642578125,-27.251909255981445,3.496183156967163,82.92366790771484
0.61663818359375,0.62652587890625,0.67620849609375,-24.58015251159668,2.6946563720703125,71.46565246582031
0.51019287109375,0.67694091796875,0.7015380859375,-13.19847297668457,6.748091697692871,58.33587646484375
0.471923828125,0.71893310546875,0.6810302734375,-7.679389476776123,9.458015441894531,55.183204650878906
0.35235595703125,0.80584716796875,0.6336669921875,-1.3969465494155884,12.076335906982422,55.17557144165039
0.27410888671875,0.8421630859375,0.615478515625,-0.06870228797197342,10.496183395385742,59.671756744384766
0.18438720703125,0.8577880859375,0.546142578125,-2.14503812789917,3.7633588314056396,77.6259536743164
0.19256591796875,0.82513427734375,0.51239013671875,-5.43511438369751,-0.6335877776145935,88.94656372070312
0.283935546875,0.69781494140625,0.47186279296875,-16.969465255737305,-5.450381755828857,107.29007720947266
0.32635498046875,0.64080810546875,0.48980712890625,-26.67938995361328,-2.038167953491211,118.2595443725586
0.4259033203125,0.5377197265625,0.52752685546875,-29.58015251159668,0.16030533611774445,121.83969116210938
0.48016357421875,0.4931640625,0.567138671875,-32.931297302246094,3.7328243255615234,123.2595443725586
0.5145263671875,0.47119140625,0.58740234375,-33.82442855834961,4.839694499969482,123.08396911621094
0.5045166015625,0.45245361328125,0.46527099609375,-51.52671813964844,-9.137404441833496,120.94656372070312
0.6064453125,0.3720703125,0.269775390625,-82.2595443725586,-27.916030883789062,112.20610809326172
0.44805908203125,0.38739013671875,0.51177978515625,-116.4885482788086,-34.14503860473633,99.71755981445312
0.392578125,0.36798095703125,0.65582275390625,-122.9312973022461,-32.77862548828125,99.83969116210938
0.29241943359375,0.35528564453125,0.78497314453125,-118.58778381347656,-25.02290153503418,107.63359069824219
0.25933837890625,0.35565185546875,0.79931640625,-114.85496520996094,-23.9007625579834,114.0457992553711
0.24224853515625,0.3828125,0.80078125,-105.98473358154297,-25.137405395507812,127.84732818603516
0.26007080078125,0.3828125,0.81842041015625,-102.0,-25.824426651000977,134.61831665039062
0.32171630859375,0.383056640625,0.8348388671875,-90.05343627929688,-20.213741302490234,143.9770965576172
0.36669921875,0.379150390625,0.83538818359375,-83.29007720947266,-15.106870651245117,145.6717529296875
0.45294189453125,0.3699951171875,0.79510498046875,-70.16030883789062,-2.3358778953552246,144.48855590820312
0.5050048828125,0.364990234375,0.77911376953125,-59.732826232910156,8.900763511657715,137.6488494873047
0.600830078125,0.37060546875,0.746826171875,-55.48091506958008,13.786259651184082,131.77099609375
0.645263671875,0.3724365234375,0.73126220703125,-49.58778762817383,21.045801162719727,116.73282623291016
0.71722412109375,0.365966796875,0.72589111328125,-46.90076446533203,24.648855209350586,107.84732818603516
0.7325439453125,0.35980224609375,0.719482421875,-41.20610809326172,30.267175674438477,88.58778381347656
0.73681640625,0.3397216796875,0.71282958984375,-38.374046325683594,33.08396911621094,79.74809265136719
0.7216796875,0.3204345703125,0.704833984375,-32.328243255615234,38.66412353515625,64.29007720947266
0.70208740234375,0.31475830078125,0.694091796875,-29.5572509765625,41.96946716308594,57.725189208984375
0.6654052734375,0.3076171875,0.6988525390625,-23.96183204650879,46.46564865112305,47.946563720703125
0.62896728515625,0.30841064453125,0.69696044921875,-21.312976837158203,48.08396911621094,44.71755599975586
0.5772705078125,0.32904052734375,0.69403076171875,-17.496183395385742,47.74045944213867,43.09160232543945
0.5672607421875,0.337890625,0.69091796875,-15.748091697692871,47.93893051147461,43.90839767456055
0.57257080078125,0.34771728515625,0.6771240234375,-12.167939186096191,49.229007720947266,45.51908493041992
0.57684326171875,0.34893798828125,0.6649169921875,-10.702290534973145,50.671756744384766,46.32061004638672
0.5911865234375,0.34991455078125,0.6536865234375,-8.145038604736328,54.450382232666016,46.732826232910156
0.59527587890625,0.3592529296875,0.62933349609375,-8.213740348815918,57.90839767456055,45.90839767456055
0.60919189453125,0.35675048828125,0.63494873046875,-8.603053092956543,59.29771041870117,44.91603088378906
0.61199951171875,0.35357666015625,0.64697265625,-8.748091697692871,63.02289962768555,41.48091506958008
0.58172607421875,0.3470458984375,0.6668701171875,-8.312976837158203,64.36640930175781,39.64885330200195
0.5120849609375,0.3369140625,0.67169189453125,-7.038167953491211,66.38167572021484,39.04580307006836
0.489501953125,0.33880615234375,0.66668701171875,-6.786259651184082,65.65648651123047,40.610687255859375
0.479736328125,0.3177490234375,0.6796875,-6.167938709259033,64.8167953491211,45.02289962768555
0.4788818359375,0.3076171875,0.68426513671875,-5.511450290679932,65.06106567382812,46.90076446533203
0.4810791015625,0.28900146484375,0.7049560546875,-3.320610761642456,67.02290344238281,50.12213897705078
0.4892578125,0.28369140625,0.7039794921875,-1.8244274854660034,68.34351348876953,51.114501953125
0.4876708984375,0.27545166015625,0.7071533203125,1.0076335668563843,72.06106567382812,52.01526641845703
0.49163818359375,0.26824951171875,0.7054443359375,2.1984732151031494,73.6717529296875,52.39694595336914
0.530517578125,0.2774658203125,0.71148681640625,6.045801639556885,73.63359069824219,52.76335906982422
0.5360107421875,0.284912109375,0.7078857421875,8.740458488464355,73.96946716308594,50.8702278137207
0.51593017578125,0.2958984375,0.7044677734375,9.694656372070312,73.9312973022461,49.656490325927734
0.51287841796875,0.29937744140625,0.71636962890625,11.389312744140625,73.91603088378906,48.13740539550781
0.48828125,0.312255859375,0.737060546875,13.12977123260498,74.05343627929688,47.82442855834961
0.4742431640625,0.32171630859375,0.743408203125,16.19847297668457,74.19847106933594,47.74809265136719
0.438720703125,0.3465576171875,0.7467041015625,17.870229721069336,73.94656372070312,48.595420837402344
0.4110107421875,0.36859130859375,0.73968505859375,19.473281860351562,71.35114288330078,51.35877990722656
0.40081787109375,0.384765625,0.74188232421875,20.19847297668457,69.07633209228516,53.404579162597656
0.39068603515625,0.4095458984375,0.74017333984375,20.717557907104492,63.6870231628418,58.12213897705078
0.39471435546875,0.41497802734375,0.73828125,20.854961395263672,60.41221237182617,60.389312744140625
0.39080810546875,0.42852783203125,0.741943359375,21.06106948852539,53.96946716308594,64.64122009277344
0.38897705078125,0.4327392578125,0.74078369140625,20.93893051147461,51.30534362792969,66.43511199951172
0.3763427734375,0.43658447265625,0.74090576171875,20.893129348754883,45.80916213989258,69.41221618652344
0.37469482421875,0.43768310546875,0.73577880859375,20.3435115814209,42.74809265136719,70.54198455810547
0.3538818359375,0.436279296875,0.727294921875,18.427480697631836,36.58015441894531,73.27481079101562
0.35723876953125,0.42059326171875,0.75225830078125,17.22137451171875,30.335878372192383,75.7404556274414
0.328369140625,0.4237060546875,0.7401123046875,17.068702697753906,27.793893814086914,78.27481079101562
0.32073974609375,0.42510986328125,0.73846435546875,14.145038604736328,19.81679344177246,82.70992279052734
0.33636474609375,0.4140625,0.7696533203125,13.732824325561523,16.305343627929688,85.31298065185547
0.34393310546875,0.41131591796875,0.77178955078125,12.038167953491211,10.312976837158203,87.6030502319336
0.32867431640625,0.41229248046875,0.7708740234375,10.954198837280273,6.72519063949585,88.48091888427734
0.330810546875,0.40277099609375,0.7674560546875,8.12977123260498,-0.7709923386573792,91.41221618652344
0.344482421875,0.39227294921875,0.75592041015625,6.244274616241455,-4.541984558105469,92.40457916259766
0.3798828125,0.37115478515625,0.740234375,2.175572633743286,-9.702290534973145,92.66412353515625
0.3984375,0.355712890625,0.74139404296875,0.15267175436019897,-12.595419883728027,92.5114517211914
0.43896484375,0.3201904296875,0.75030517578125,-0.7862595319747925,-18.610687255859375,91.78626251220703
0.4537353515625,0.303466796875,0.74090576171875,0.15267175436019897,-21.488550186157227,91.87023162841797
0.4674072265625,0.2689208984375,0.72308349609375,3.671755790710449,-26.793893814086914,93.67938995361328
0.4718017578125,0.25994873046875,0.716064453125,6.251908302307129,-28.374046325683594,95.885498046875
0.49346923828125,0.25396728515625,0.7119140625,11.534351348876953,-30.229007720947266,101.25190734863281
0.50103759765625,0.2486572265625,0.71136474609375,17.77862548828125,-31.129770278930664,106.12213897705078
0.52008056640625,0.22979736328125,0.708984375,21.450382232666016,-31.3435115814209,107.89312744140625
0.542724609375,0.2152099609375,0.71142578125,28.190839767456055,-30.96183204650879,111.22900390625
0.57861328125,0.18658447265625,0.6734619140625,31.76335906982422,-30.41984748840332,111.61068725585938
0.60308837890625,0.1661376953125,0.66571044921875,36.770992279052734,-28.74045753479004,111.3282470703125
0.62493896484375,0.142578125,0.65472412109375,39.70228958129883,-26.809160232543945,110.01526641845703
0.613525390625,0.14044189453125,0.6500244140625,45.86259460449219,-22.114503860473633,108.38931274414062
0.61016845703125,0.145263671875,0.6556396484375,48.67938995361328,-20.35877799987793,108.09923553466797
0.59814453125,0.16693115234375,0.68438720703125,56.106868743896484,-17.16030502319336,107.01526641845703
0.58673095703125,0.1781005859375,0.6959228515625,60.25190734863281,-15.931297302246094,105.97709655761719
0.57025146484375,0.180419921875,0.72308349609375,69.90839385986328,-14.610687255859375,104.20610809326172
0.5509033203125,0.1854248046875,0.72637939453125,74.57251739501953,-13.572519302368164,102.40457916259766
0.5260009765625,0.1864013671875,0.729736328125,82.34351348876953,-12.679388999938965,98.99236297607422
0.52117919921875,0.19512939453125,0.73333740234375,85.67938995361328,-12.351144790649414,96.53434753417969
0.5018310546875,0.2081298828125,0.7525634765625,91.4427490234375,-11.022900581359863,90.85496520996094
0.49481201171875,0.21905517578125,0.7674560546875,97.23664093017578,-10.633587837219238,84.00763702392578
0.49139404296875,0.2449951171875,0.7747802734375,99.40457916259766,-10.427480697631836,79.73282623291016
0.490234375,0.25958251953125,0.77838134765625,103.66412353515625,-11.48854923248291,69.58778381347656
0.49090576171875,0.2877197265625,0.77459716796875,105.16030883789062,-11.854961395263672,63.290077209472656
0.49114990234375,0.30743408203125,0.77703857421875,106.47328186035156,-11.603053092956543,49.847328186035156
0.572021484375,0.53759765625,0.77667236328125,104.69465637207031,-7.076335906982422,32.946563720703125
0.5499267578125,1.282958984375,0.83502197265625,72.41221618652344,-1.3435114622116089,-52.64885330200195
0.48712158203125,1.31591796875,1.05682373046875,24.091602325439453,-14.007633209228516,-127.3969497680664
0.2513427734375,0.61273193359375,1.39569091796875,-39.725189208984375,22.48091697692871,-190.16030883789062
0.15972900390625,0.49542236328125,1.36773681640625,-25.503816604614258,34.09923553466797,-193.43511962890625
0.2454833984375,0.349609375,1.1328125,25.190839767456055,10.007633209228516,-192.5954132080078
0.27374267578125,0.3135986328125,0.93621826171875,40.09160232543945,0.8167939186096191,-192.9007568359375
0.28656005859375,0.3626708984375,0.6094970703125,32.893131256103516,-6.137404441833496,-189.57252502441406
0.31829833984375,0.4100341796875,0.566162109375,19.045801162719727,-8.763359069824219,-187.7633514404297
0.396728515625,0.454345703125,0.655517578125,-4.824427604675293,-14.61832046508789,-184.70993041992188
0.42413330078125,0.45703125,0.715576171875,-12.366412162780762,-19.61832046508789,-183.0
0.4781494140625,0.45672607421875,0.74176025390625,-13.557251930236816,-20.244274139404297,-183.17556762695312
0.49139404296875,0.4552001953125,0.71490478515625,-16.58015251159668,-19.81679344177246,-184.0381622314453
0.50653076171875,0.463623046875,0.64813232421875,-19.114503860473633,-18.954198837280273,-184.33587646484375
0.50775146484375,0.5059814453125,0.6258544921875,-26.60305404663086,-18.175573348999023,-183.94656372070312
0.5269775390625,0.519287109375,0.6318359375,-29.854961395263672,-17.67938995361328,-183.80152893066406
0.57354736328125,0.5469970703125,0.65423583984375,-34.77862548828125,-15.793892860412598,-185.42747497558594
0.59521484375,0.56024169921875,0.66168212890625,-36.0,-14.587786674499512,-187.0763397216797
0.6195068359375,0.56976318359375,0.6544189453125,-37.79389190673828,-11.87022876739502,-193.2366485595703
0.6258544921875,0.5693359375,0.6392822265625,-38.8702278137207,-10.526717185974121,-196.10687255859375
0.64093017578125,0.554931640625,0.6173095703125,-42.07633590698242,-8.335877418518066,-203.4045867919922
0.64263916015625,0.55120849609375,0.60748291015625,-43.76335906982422,-6.984732627868652,-207.17556762695312
0.621337890625,0.540771484375,0.5841064453125,-48.22137451171875,-4.343511581420898,-214.58778381347656
0.59979248046875,0.5350341796875,0.5799560546875,-53.53435134887695,-2.435114622116089,-218.66412353515625
0.58892822265625,0.53582763671875,0.5736083984375,-56.41984558105469,-1.3969465494155884,-220.5954132080078
0.5802001953125,0.5198974609375,0.60101318359375,-60.564884185791016,0.9236640930175781,-223.73281860351562
0.55670166015625,0.50323486328125,0.6500244140625,-60.82442855834961,2.580152750015259,-224.5419921875
0.52923583984375,0.5137939453125,0.63134765625,-61.09160232543945,5.396946430206299,-225.87022399902344
0.45465087890625,0.5072021484375,0.612060546875,-62.14503860473633,4.9083967208862305,-224.4427490234375
0.39324951171875,0.49237060546875,0.60028076171875,-66.4427490234375,2.8091602325439453,-217.19847106933594
0.36932373046875,0.48248291015625,0.59600830078125,-69.09160614013672,0.7251908183097839,-211.82443237304688
0.3284912109375,0.462646484375,0.60235595703125,-74.47328186035156,-2.564885377883911,-199.19847106933594
0.31103515625,0.45361328125,0.60980224609375,-77.08396911621094,-4.129770755767822,-191.62596130371094
0.2821044921875,0.43365478515625,0.6456298828125,-80.07633209228516,-6.396946430206299,-174.77862548828125
0.27410888671875,0.41107177734375,0.67529296875,-80.6030502319336,-7.160305500030518,-165.93130493164062
0.2587890625,0.387939453125,0.7066650390625,-77.4427490234375,-8.175572395324707,-146.91603088378906
0.24951171875,0.38385009765625,0.7042236328125,-75.46565246582031,-8.4503812789917,-137.05343627929688
0.25958251953125,0.35211181640625,0.7120361328125,-71.67938995361328,-10.442748069763184,-116.33587646484375
0.26959228515625,0.34222412109375,0.70538330078125,-67.21373748779297,-11.70992374420166,-96.09160614013672
0.27655029296875,0.32110595703125,0.6943359375,-65.45801544189453,-12.603053092956543,-85.38931274414062
0.2772216796875,0.31427001953125,0.6839599609375,-61.97710037231445,-13.923664093017578,-64.15267181396484
0.282958984375,0.30303955078125,0.67822265625,-59.41221237182617,-14.5496187210083,-53.70228958129883
0.28424072265625,0.3067626953125,0.67974853515625,-54.53435134887695,-16.282442092895508,-32.488548278808594
0.29315185546875,0.31939697265625,0.67596435546875,-51.69465637207031,-17.053434371948242,-21.916030883789062
0.30255126953125,0.3319091796875,0.67071533203125,-46.13740539550781,-18.366413116455078,-0.9083969593048096
0.315185546875,0.34100341796875,0.66729736328125,-43.274810791015625,-19.23664093017578,9.030534744262695
0.323486328125,0.35650634765625,0.65618896484375,-39.0,-21.01526641845703,27.717557907104492
0.331298828125,0.36187744140625,0.6572265625,-36.82442855834961,-21.48091697692871,36.70228958129883
0.3363037109375,0.392822265625,0.656982421875,-34.511451721191406,-22.5572509765625,51.98473358154297
0.33831787109375,0.40277099609375,0.65606689453125,-33.25954055786133,-22.732824325561523,58.83969497680664
0.330078125,0.42327880859375,0.6707763671875,-32.4427490234375,-23.39694595336914,72.0687026977539
0.3250732421875,0.4324951171875,0.67889404296875,-31.946565628051758,-23.251909255981445,78.03816986083984
0.32086181640625,0.451416015625,0.69561767578125,-30.893129348754883,-23.35877799987793,89.2977066040039
0.3170166015625,0.45684814453125,0.70428466796875,-30.81679344177246,-23.549617767333984,99.29007720947266
0.35137939453125,0.43121337890625,0.78094482421875,-29.389312744140625,-23.335878372192383,103.6259536743164
0.3460693359375,0.44500732421875,0.792236328125,-20.54198455810547,-19.496183395385742,108.71755981445312
0.3626708984375,0.57562255859375,0.67034912109375,-22.40458106994629,-18.114503860473633,113.91603088378906
0.390625,0.59906005859375,0.67840576171875,-33.931297302246094,-12.167939186096191,115.99236297607422
0.41949462890625,0.620849609375,0.6053466796875,-39.07633590698242,-11.740458488464355,114.38931274414062
0.38818359375,0.6357421875,0.6260986328125,-60.74045944213867,-14.564885139465332,111.75572204589844
0.3907470703125,0.605224609375,0.66119384765625,-68.30534362792969,-21.893129348754883,112.38931274414062
0.39996337890625,0.55902099609375,0.58984375,-75.83969116210938,-28.702289581298828,118.57251739501953
0.39251708984375,0.52313232421875,0.51904296875,-84.61832427978516,-27.97709846496582,122.68701934814453
0.33734130859375,0.39996337890625,0.83306884765625,-110.54962158203125,-72.58015441894531,131.39694213867188
0.433349609375,0.3975830078125,0.76666259765625,-111.6030502319336,-88.2977066040039,138.5419921875
0.45428466796875,0.46649169921875,0.54638671875,-120.9542007446289,-79.99236297607422,144.6946563720703
0.4884033203125,0.4852294921875,0.48309326171875,-129.5572509765625,-83.0687026977539,145.4198455810547
0.52191162109375,0.50445556640625,0.328857421875,-151.10687255859375,-73.97709655761719,147.343505859375
0.540283203125,0.5050048828125,0.24127197265625,-187.87022399902344,-47.229007720947266,145.5954132080078
0.5115966796875,0.5123291015625,0.181396484375,-209.06106567382812,-34.13740539550781,143.93130493164062
0.46429443359375,0.44537353515625,0.24053955078125,-243.26718139648438,-15.022900581359863,143.885498046875
0.4130859375,0.3834228515625,0.41241455078125,-250.1374053955078,-10.282443046569824,146.9084014892578
0.42919921875,0.309814453125,0.591064453125,-250.1374053955078,-8.442748069763184,159.5801544189453
0.43865966796875,0.284423828125,0.62554931640625,-250.1374053955078,-5.442748069763184,164.656494140625
0.50531005859375,0.4002685546875,0.610107421875,-250.1374053955078,-3.648854970932007,173.5190887451172
0.54376220703125,0.37860107421875,0.58660888671875,-250.1374053955078,2.396946668624878,173.45037841796875
0.54742431640625,0.3775634765625,0.61566162109375,-250.1374053955078,14.053435325622559,165.7938995361328
0.521240234375,0.32537841796875,0.6737060546875,-250.1374053955078,16.97709846496582,163.05343627929688
0.49761962890625,0.235107421875,0.7769775390625,-250.1374053955078,13.717556953430176,163.16793823242188
0.5286865234375,0.208984375,0.7894287109375,-250.1374053955078,11.22137451171875,163.0381622314453
0.55084228515625,0.18084716796875,0.76190185546875,-250.1374053955078,10.09160327911377,157.5954132080078
0.5526123046875,0.1729736328125,0.73504638671875,-250.1374053955078,11.4503812789917,149.3664093017578
0.5350341796875,0.14361572265625,0.73553466796875,-250.1374053955078,11.572519302368164,143.74046325683594
0.49249267578125,0.10986328125,0.7806396484375,-250.1374053955078,11.32824420928955,137.74046325683594
0.46917724609375,0.06561279296875,0.8270263671875,-250.1374053955078,11.236640930175781,136.18321228027344
0.4560546875,0.05224609375,0.8428955078125,-250.1374053955078,9.007633209228516,132.29006958007812
0.433837890625,0.02069091796875,0.86419677734375,-250.1374053955078,8.206107139587402,131.31297302246094
0.39697265625,-0.02197265625,0.878662109375,-250.1374053955078,7.9083967208862305,132.0
0.3748779296875,-0.03875732421875,0.8916015625,-250.1374053955078,7.389312744140625,133.6335906982422
0.37628173828125,-0.0450439453125,0.896240234375,-250.1374053955078,7.473282337188721,138.85496520996094
0.37005615234375,-0.05340576171875,0.8870849609375,-250.1374053955078,7.870229244232178,140.61831665039062
0.36346435546875,-0.075927734375,0.90155029296875,-250.1374053955078,6.068702220916748,144.72518920898438
0.35968017578125,-0.09771728515625,0.921875,-250.1374053955078,6.038167953491211,147.17556762695312
0.36383056640625,-0.13873291015625,0.9595947265625,-238.57252502441406,5.748091697692871,152.51144409179688
0.37408447265625,-0.1483154296875,0.97467041015625,-230.4809112548828,7.015267372131348,155.52671813964844
0.41351318359375,-0.15667724609375,0.99993896484375,-214.0381622314453,9.83969497680664,157.7633514404297
0.425537109375,-0.15423583984375,1.02496337890625,-193.99237060546875,13.48854923248291,157.9236602783203
0.4617919921875,-0.1279296875,1.06231689453125,-182.9770965576172,15.045801162719727,157.08396911621094
0.47540283203125,-0.12939453125,1.0716552734375,-160.62596130371094,17.732824325561523,153.5190887451172
0.49420166015625,-0.14202880859375,1.0653076171875,-149.93130493164062,18.9007625579834,151.42747497558594
0.5068359375,-0.15081787109375,1.06549072265625,-128.38168334960938,21.51908302307129,146.4198455810547
0.5294189453125,-0.15509033203125,1.0599365234375,-118.01526641845703,23.251909255981445,143.87786865234375
0.55242919921875,-0.1531982421875,1.05322265625,-96.54962158203125,25.77862548828125,137.3664093017578
0.57080078125,-0.14520263671875,1.0482177734375,-86.28244018554688,27.77862548828125,134.14503479003906
0.5875244140625,-0.132568359375,1.04388427734375,-66.85496520996094,31.305343627929688,125.68701934814453
0.59844970703125,-0.13775634765625,1.0325927734375,-56.709922790527344,33.389312744140625,121.72518920898438
0.60906982421875,-0.1575927734375,0.99810791015625,-39.76335906982422,39.41221237182617,113.06106567382812
0.61175537109375,-0.1580810546875,0.97979736328125,-32.45801544189453,42.38167953491211,108.05343627929688
0.60418701171875,-0.1593017578125,0.9571533203125,-18.702289581298828,48.29771041870117,98.3740463256836
0.59625244140625,-0.16424560546875,0.9483642578125,-12.557251930236816,51.03816604614258,94.3282470703125
0.57958984375,-0.16217041015625,0.9241943359375,-1.6870229244232178,53.5572509765625,87.58778381347656
0.56982421875,-0.1629638671875,0.912841796875,7.702290058135986,55.41221237182617,81.6717529296875
0.5496826171875,-0.15472412109375,0.88812255859375,12.022900581359863,55.549617767333984,78.4427490234375
0.5440673828125,-0.1533203125,0.87884521484375,18.87786293029785,55.343509674072266,73.4885482788086
0.51904296875,-0.16229248046875,0.8623046875,22.351144790649414,54.96946716308594,71.0
0.504638671875,-0.16754150390625,0.86151123046875,27.96183204650879,54.106868743896484,68.21373748779297
0.48675537109375,-0.18701171875,0.857421875,30.64122200012207,53.22137451171875,67.09160614013672
0.4769287109375,-0.19342041015625,0.8492431640625,36.69465637207031,51.54198455810547,66.17557525634766
0.466796875,-0.195556640625,0.8505859375,39.01526641845703,50.32061004638672,66.28244018554688
0.46441650390625,-0.20501708984375,0.83721923828125,44.404579162597656,46.732826232910156,66.09160614013672
0.4537353515625,-0.214599609375,0.8330078125,46.8015251159668,44.01526641845703,66.42748260498047
0.45037841796875,-0.2135009765625,0.83111572265625,52.770992279052734,37.725189208984375,66.75572204589844
0.446044921875,-0.22064208984375,0.8330078125,54.7557258605957,35.04580307006836,67.13740539550781
0.43035888671875,-0.224609375,0.80609130859375,60.20610809326172,29.587785720825195,67.9312973022461
0.42266845703125,-0.22052001953125,0.79412841796875,61.16030502319336,26.9007625579834,68.96183013916016
0.41668701171875,-0.230712890625,0.7926025390625,64.6717529296875,22.35877799987793,71.70992279052734
0.41033935546875,-0.2335205078125,0.78472900390625,67.94656372070312,20.74045753479004,74.98473358154297
0.41839599609375,-0.2294921875,0.76971435546875,69.48091888427734,20.25954246520996,76.4885482788086
0.4190673828125,-0.224853515625,0.7613525390625,71.51908111572266,20.16030502319336,79.51908111572266
0.42816162109375,-0.2081298828125,0.75274658203125,71.96946716308594,20.19847297668457,80.93893432617188
0.43939208984375,-0.2117919921875,0.76654052734375,73.71755981445312,20.725191116333008,82.89312744140625
0.46417236328125,-0.1961669921875,0.76873779296875,75.15267181396484,22.809160232543945,83.19084167480469
0.4736328125,-0.18157958984375,0.76873779296875,76.2977066040039,26.81679344177246,83.41984558105469
0.47216796875,-0.17547607421875,0.7723388671875,77.54962158203125,29.755725860595703,83.65648651123047
0.4697265625,-0.15960693359375,0.7569580078125,78.93893432617188,36.549617767333984,84.14503479003906
0.46673583984375,-0.1513671875,0.76544189453125,77.92366790771484,38.5572509765625,84.24427795410156
0.46038818359375,-0.13641357421875,0.77618408203125,77.31298065185547,45.549617767333984,85.46565246582031
0.45965576171875,-0.12841796875,0.77874755859375,77.7022933959961,51.1984748840332,86.30534362792969
0.46728515625,-0.13006591796875,0.7869873046875,75.71755981445312,56.61832046508789,86.78626251220703
0.48333740234375,-0.12359619140625,0.804443359375,73.91603088378906,57.58778762817383,86.38167572021484
0.48101806640625,-0.11083984375,0.79083251953125,69.4885482788086,62.1984748840332,84.22137451171875
0.49053955078125,-0.109619140625,0.80474853515625,62.4427490234375,65.56488800048828,79.73282623291016
0.4814453125,-0.08526611328125,0.78662109375,59.16030502319336,70.78626251220703,77.61068725585938
0.4771728515625,-0.07513427734375,0.78472900390625,49.58015441894531,80.45801544189453,71.3969497680664
0.4940185546875,-0.06304931640625,0.79052734375,45.068702697753906,84.9542007446289,67.7022933959961
0.4940185546875,-0.0587158203125,0.790771484375,34.709922790527344,93.84732818603516,59.610687255859375
0.4814453125,-0.06011962890625,0.79742431640625,30.648855209350586,99.114501953125,55.38167953491211
0.44915771484375,-0.05255126953125,0.81304931640625,24.328245162963867,105.28244018554688,47.91603088378906
0.43121337890625,-0.0479736328125,0.8135986328125,21.48091697692871,105.83969116210938,45.290077209472656
0.40069580078125,-0.04083251953125,0.8193359375,15.229007720947266,103.09923553466797,41.54198455810547
0.38421630859375,-0.0423583984375,0.82122802734375,11.862595558166504,100.79389190673828,41.08396911621094
0.36846923828125,-0.0465087890625,0.8302001953125,4.206106662750244,93.50381469726562,41.0
0.36328125,-0.043701171875,0.83160400390625,0.7099236845970154,91.2595443725586,40.93893051147461
0.35943603515625,-0.04046630859375,0.8304443359375,-6.175572395324707,87.63359069824219,41.053436279296875
0.3526611328125,-0.0458984375,0.828857421875,-13.748091697692871,87.76335906982422,40.847328186035156
0.3548583984375,-0.04840087890625,0.8370361328125,-17.709922790527344,88.54962158203125,40.511451721191406
0.35601806640625,-0.051513671875,0.83819580078125,-24.091602325439453,91.54962158203125,38.90076446533203
0.36279296875,-0.05706787109375,0.84619140625,-26.923664093017578,93.34351348876953,37.595420837402344
0.36468505859375,-0.060302734375,0.84393310546875,-31.923664093017578,97.20610809326172,35.17557144165039
0.36822509765625,-0.0679931640625,0.84136962890625,-34.290077209472656,99.1832046508789,34.068702697753906
0.35382080078125,-0.06683349609375,0.843505859375,-38.48091506958008,100.36640930175781,31.48091697692871
0.35693359375,-0.06256103515625,0.84912109375,-40.35877990722656,99.42748260498047,30.19847297668457
0.35980224609375,-0.07550048828125,0.878173828125,-43.114501953125,97.06106567382812,28.053434371948242
0.36614990234375,-0.07958984375,0.88861083984375,-43.60305404663086,96.33587646484375,26.625953674316406
0.3548583984375,-0.09478759765625,0.90057373046875,-43.709922790527344,95.58015441894531,23.12213706970215
0.356201171875,-0.1011962890625,0.91015625,-42.61832046508789,95.49618530273438,21.61832046508789
0.36669921875,-0.1171875,0.9093017578125,-39.39694595336914,96.67938995361328,18.40458106994629
0.36962890625,-0.12078857421875,0.90625,-37.549617767333984,97.90076446533203,16.61832046508789
0.3707275390625,-0.13104248046875,0.898193359375,-34.12213897705078,100.82442474365234,12.137404441833496
0.36053466796875,-0.1309814453125,0.8961181640625,-30.916030883789062,104.38931274414062,7.465648651123047
0.34075927734375,-0.13916015625,0.903564453125,-29.244274139404297,105.80915832519531,5.610687255859375
0.33648681640625,-0.1424560546875,0.90631103515625,-25.0992374420166,108.32061004638672,2.0
0.31622314453125,-0.156982421875,0.9146728515625,-23.503816604614258,109.42748260498047,0.07633587718009949
0.291259765625,-0.16802978515625,0.923095703125,-19.35877799987793,109.03816986083984,-1.2748091220855713
0.2720947265625,-0.16162109375,0.9183349609375,-17.076335906982422,108.7404556274414,-1.4045801162719727
0.27032470703125,-0.16717529296875,0.9200439453125,-11.259541511535645,107.96183013916016,0.2977099120616913
0.27191162109375,-0.16357421875,0.91485595703125,-8.045801162719727,107.34351348876953,1.1679389476776123
0.2493896484375,-0.163818359375,0.9090576171875,-2.748091697692871,103.7022933959961,4.404580116271973
0.2568359375,-0.15997314453125,0.89630126953125,0.221374049782753,100.92366790771484,6.793893337249756
0.27764892578125,-0.14837646484375,0.8818359375,2.4427480697631836,98.35877990722656,8.038167953491211
0.27288818359375,-0.1470947265625,0.8834228515625,3.4809160232543945,97.4427490234375,8.587786674499512
0.2838134765625,-0.14117431640625,0.8922119140625,5.320610523223877,95.54198455810547,9.503816604614258
0.289794921875,-0.1346435546875,0.89068603515625,6.526717662811279,94.89312744140625,9.87022876739502
0.28948974609375,-0.11669921875,0.885498046875,7.992366313934326,93.78626251220703,9.396946907043457
0.3006591796875,-0.1053466796875,0.88739013671875,8.977099418640137,93.41221618652344,8.83969497680664
0.29229736328125,-0.09844970703125,0.8994140625,9.022900581359863,93.34351348876953,8.16030502319336
0.3021240234375,-0.08709716796875,0.9019775390625,9.694656372070312,92.09160614013672,7.923664093017578
0.30096435546875,-0.07684326171875,0.90570068359375,9.67175579071045,92.75572204589844,6.900763511657715
0.28704833984375,-0.07867431640625,0.91485595703125,10.114503860473633,91.77862548828125,7.053435325622559
0.28997802734375,-0.0753173828125,0.912109375,10.236640930175781,90.93893432617188,7.183206081390381
0.2799072265625,-0.0697021484375,0.90289306640625,10.22137451171875,89.70992279052734,8.32824420928955
0.29718017578125,-0.0694580078125,0.89691162109375,9.358778953552246,89.92366790771484,8.282443046569824
0.28326416015625,-0.07196044921875,0.90069580078125,7.671755790710449,92.12976837158203,7.122137546539307
0.2894287109375,-0.07366943359375,0.898681640625,7.4809160232543945,92.66412353515625,6.824427604675293
0.27703857421875,-0.06884765625,0.8909912109375,5.687022686004639,95.76335906982422,4.931297779083252
0.277099609375,-0.06854248046875,0.891845703125,5.129770755767822,96.46565246582031,3.8015267848968506
0.26947021484375,-0.0865478515625,0.900390625,3.893129825592041,96.19084167480469,1.694656491279602
0.2489013671875,-0.09320068359375,0.90155029296875,3.2977099418640137,96.0457992553711,0.885496199131012
0.23895263671875,-0.1007080078125,0.90545654296875,2.893129825592041,94.43511199951172,0.5648854970932007
0.23699951171875,-0.09686279296875,0.90582275390625,2.358778715133667,94.10687255859375,-0.6412213444709778
0.2216796875,-0.103271484375,0.91229248046875,2.251908302307129,94.02290344238281,-0.5572519302368164
0.21234130859375,-0.10919189453125,0.914306640625,2.2595419883728027,93.1832046508789,-0.8702290058135986
0.2152099609375,-0.10711669921875,0.90936279296875,2.8778626918792725,93.09160614013672,-1.2748091220855713
0.2132568359375,-0.12066650390625,0.91094970703125,2.137404680252075,96.75572204589844,-4.29007625579834
0.1983642578125,-0.12445068359375,0.9088134765625,2.6259541511535645,98.19084167480469,-5.603053569793701
0.16937255859375,-0.13739013671875,0.9007568359375,3.5496182441711426,97.91603088378906,-6.572519302368164
0.177734375,-0.1285400390625,0.8909912109375,4.267175674438477,97.09160614013672,-6.312977313995361
0.15496826171875,-0.13812255859375,0.8929443359375,4.43511438369751,97.75572204589844,-8.83969497680664
0.13922119140625,-0.143798828125,0.9013671875,4.6259541511535645,97.06106567382812,-8.48854923248291
0.13433837890625,-0.151611328125,0.91961669921875,5.893129825592041,96.12976837158203,-8.374045372009277
0.1275634765625,-0.146240234375,0.9205322265625,7.206106662750244,96.34351348876953,-8.007633209228516
0.1199951171875,-0.1522216796875,0.9381103515625,8.992366790771484,95.93893432617188,-7.206106662750244
0.1153564453125,-0.1533203125,0.937255859375,11.022900581359863,94.85496520996094,-6.114503860473633
0.10302734375,-0.1561279296875,0.9324951171875,11.755724906921387,93.08396911621094,-5.114503860473633
0.116943359375,-0.16265869140625,0.92828369140625,13.396946907043457,89.20610809326172,-4.381679534912109
0.09454345703125,-0.16693115234375,0.9228515625,13.885496139526367,86.3282470703125,-3.1679389476776123
0.0887451171875,-0.171875,0.9150390625,14.351144790649414,79.46565246582031,-0.3893129825592041
0.0799560546875,-0.16876220703125,0.90289306640625,14.137404441833496,76.05343627929688,0.8244274854660034
0.073974609375,-0.160400390625,0.90313720703125,12.732824325561523,68.87023162841797,4.27480936050415
0.0767822265625,-0.156982421875,0.90093994140625,11.992366790771484,65.7404556274414,6.122137546539307
0.10211181640625,-0.14990234375,0.899169921875,10.442748069763184,59.76335906982422,8.816793441772461
0.09918212890625,-0.15106201171875,0.9073486328125,9.58015251159668,58.23664093017578,9.763359069824219
0.10467529296875,-0.12335205078125,0.875244140625,7.839694499969482,55.92366409301758,11.4503812789917
0.11614990234375,-0.11798095703125,0.8804931640625,5.160305500030518,54.328243255615234,11.946564674377441
0.12994384765625,-0.12799072265625,0.93682861328125,3.8091602325439453,54.47328186035156,11.312976837158203
0.1224365234375,-0.12982177734375,0.93878173828125,4.641221523284912,55.25954055786133,11.12977123260498
0.10662841796875,-0.119873046875,0.9031982421875,4.7633585929870605,54.04580307006836,12.587786674499512
0.1204833984375,-0.10968017578125,0.8843994140625,1.122137427330017,52.374046325683594,13.793892860412598
0.142333984375,-0.11138916015625,0.8983154296875,-0.25954198837280273,52.3129768371582,13.442748069763184
0.14471435546875,-0.11224365234375,0.91119384765625,-1.8091603517532349,54.07633590698242,11.320611000061035
0.1630859375,-0.10626220703125,0.9285888671875,-2.1908397674560547,55.8702278137207,9.320611000061035
0.15020751953125,-0.11016845703125,0.9447021484375,-1.5572519302368164,58.54198455810547,5.648854732513428
0.1171875,-0.11529541015625,0.9599609375,-0.12977099418640137,58.96183395385742,4.458015441894531
0.0972900390625,-0.11700439453125,0.97100830078125,3.641221284866333,58.02289962768555,3.0839693546295166
0.08319091796875,-0.11981201171875,0.9580078125,5.404580116271973,58.16030502319336,2.969465732574463
0.09033203125,-0.1187744140625,0.951904296875,7.267175674438477,57.6870231628418,2.85496187210083
0.0850830078125,-0.11651611328125,0.93780517578125,8.297709465026855,58.91603088378906,2.4809160232543945
0.0753173828125,-0.129150390625,0.94268798828125,10.190839767456055,59.152671813964844,2.7633588314056396
0.076171875,-0.12286376953125,0.93231201171875,11.0,59.183204650878906,2.5877861976623535
0.08233642578125,-0.113037109375,0.92474365234375,11.022900581359863,59.71755599975586,3.0839693546295166
0.083740234375,-0.1141357421875,0.9312744140625,10.793892860412598,60.51908493041992,2.5877861976623535
0.08905029296875,-0.11676025390625,0.9356689453125,12.427480697631836,60.29771041870117,2.8015267848968506
0.09820556640625,-0.112060546875,0.92791748046875,12.183206558227539,61.732826232910156,1.534351110458374
0.1129150390625,-0.113037109375,0.907470703125,11.389312744140625,63.64885330200195,-0.221374049782753
0.1083984375,-0.117919921875,0.9053955078125,11.923664093017578,65.12213897705078,-2.70992374420166
0.1199951171875,-0.12115478515625,0.89080810546875,11.541984558105469,66.3740463256836,-4.6259541511535645
0.1201171875,-0.12579345703125,0.87835693359375,9.465648651123047,68.00763702392578,-8.267175674438477
0.07745361328125,-0.128662109375,0.887451171875,8.885496139526367,67.93893432617188,-9.725191116333008
0.1041259765625,-0.1268310546875,0.8677978515625,7.572519302368164,66.98473358154297,-12.038167953491211
0.085205078125,-0.1229248046875,0.87261962890625,5.641221523284912,68.34351348876953,-13.175572395324707
0.06866455078125,-0.1282958984375,0.88714599609375,3.3129770755767822,68.19847106933594,-15.083969116210938
0.06317138671875,-0.1239013671875,0.90234375,2.992366313934326,67.71755981445312,-15.603053092956543
0.087158203125,-0.12396240234375,0.89495849609375,1.6030534505844116,69.29007720947266,-18.6564884185791
0.08203125,-0.1253662109375,0.8931884765625,0.5038167834281921,71.10687255859375,-21.145038604736328
0.0916748046875,-0.12261962890625,0.88311767578125,-1.3129770755767822,72.89312744140625,-25.053434371948242
0.09527587890625,-0.1239013671875,0.8780517578125,-3.3740458488464355,74.53434753417969,-28.633586883544922
0.0703125,-0.13006591796875,0.881591796875,-7.030534267425537,76.7022933959961,-34.16030502319336
0.052734375,-0.138671875,0.88909912109375,-10.29007625579834,78.53434753417969,-37.58015441894531
0.04083251953125,-0.13702392578125,0.87640380859375,-14.358778953552246,82.08396911621094,-40.52671813964844
0.01611328125,-0.13018798828125,0.9010009765625,-15.274808883666992,79.96183013916016,-41.39694595336914
-0.01568603515625,-0.15264892578125,0.9320068359375,-13.969465255737305,76.85496520996094,-40.45801544189453
-0.00958251953125,-0.150390625,0.932861328125,-13.38167953491211,72.90839385986328,-38.64122009277344
-0.04779052734375,-0.13525390625,0.96051025390625,-11.587786674499512,68.885498046875,-36.08396911621094
-0.0274658203125,-0.140380859375,0.95697021484375,-8.167939186096191,60.64885330200195,-30.03816795349121
-0.03521728515625,-0.1314697265625,0.95831298828125,-7.984732627868652,58.770992279052734,-28.3435115814209
-0.04840087890625,-0.13916015625,0.9478759765625,-6.015267372131348,53.8702278137207,-23.923664093017578
-0.03497314453125,-0.14080810546875,0.94110107421875,-5.9083967208862305,51.435115814208984,-20.954198837280273
0.0123291015625,-0.112548828125,0.9300537109375,-6.641221523284912,50.69465637207031,-18.870229721069336
0.02197265625,-0.10516357421875,0.927978515625,-7.549618244171143,51.25190734863281,-18.81679344177246
-0.00341796875,-0.12713623046875,0.93603515625,-9.083969116210938,52.0,-19.549617767333984
0.0355224609375,-0.11395263671875,0.9317626953125,-8.351144790649414,49.709922790527344,-18.648855209350586
0.0213623046875,-0.11187744140625,0.92486572265625,-8.603053092956543,48.60305404663086,-19.145038604736328
0.0467529296875,-0.0987548828125,0.91070556640625,-11.564885139465332,48.13740539550781,-20.824426651000977
0.03094482421875,-0.1025390625,0.93011474609375,-11.87022876739502,47.6870231628418,-22.175573348999023
0.06829833984375,-0.0869140625,0.9249267578125,-13.167939186096191,50.213741302490234,-25.702289581298828
0.0233154296875,-0.07952880859375,0.929931640625,-15.297709465026855,54.08396911621094,-28.51908302307129
0.07440185546875,-0.0518798828125,0.9169921875,-17.54198455810547,60.54198455810547,-34.435115814208984
0.0556640625,-0.06915283203125,0.91412353515625,-19.725191116333008,67.45801544189453,-38.893131256103516
0.011962890625,-0.06805419921875,0.92474365234375,-22.786258697509766,77.56488800048828,-47.450382232666016
0.0015869140625,-0.078125,0.91900634765625,-23.450382232666016,81.20610809326172,-50.106868743896484
0.00067138671875,-0.072021484375,0.91259765625,-27.244274139404297,92.34351348876953,-56.35877990722656
-0.01861572265625,-0.07818603515625,0.9095458984375,-28.526718139648438,97.34351348876953,-59.847328186035156
-0.05316162109375,-0.1092529296875,0.9053955078125,-31.5572509765625,106.90076446533203,-64.97709655761719
-0.05694580078125,-0.1142578125,0.89385986328125,-32.96183395385742,110.22137451171875,-66.4427490234375
-0.095947265625,-0.13970947265625,0.88720703125,-35.290077209472656,117.05343627929688,-68.57251739501953
-0.11163330078125,-0.14935302734375,0.88677978515625,-36.97710037231445,119.56488800048828,-68.57251739501953
-0.13018798828125,-0.146728515625,0.861083984375,-39.36641311645508,121.114501953125,-66.885498046875
-0.14874267578125,-0.14971923828125,0.865966796875,-43.35114669799805,118.48091888427734,-61.96946716308594
-0.16192626953125,-0.15740966796875,0.88446044921875,-44.16030502319336,116.23664093017578,-59.58015441894531
-0.1702880859375,-0.16766357421875,0.888916015625,-44.28244400024414,112.05343627929688,-51.03053283691406
-0.14453125,-0.17938232421875,0.90948486328125,-44.20610809326172,108.76335906982422,-47.08396911621094
-0.125732421875,-0.16375732421875,0.93499755859375,-42.35114669799805,102.35114288330078,-40.28244400024414
-0.11773681640625,-0.158447265625,0.94647216796875,-40.38167953491211,98.79389190673828,-37.229007720947266
-0.19049072265625,-0.17889404296875,0.9249267578125,-38.90076446533203,89.76335906982422,-28.114503860473633
-0.18023681640625,-0.1998291015625,0.93646240234375,-38.79389190673828,82.72518920898438,-21.129770278930664
-0.132080078125,-0.1815185546875,0.957763671875,-34.770992279052734,69.83969116210938,-12.099236488342285
-0.14031982421875,-0.17449951171875,0.961669921875,-32.53435134887695,64.2595443725586,-8.725191116333008
-0.0899658203125,-0.1776123046875,0.9698486328125,-29.152671813964844,57.404579162597656,-4.496183395385742
-0.073486328125,-0.169677734375,0.962158203125,-26.96183204650879,56.8015251159668,-3.931297779083252
-0.08587646484375,-0.16650390625,0.95562744140625,-23.687023162841797,54.8015251159668,-4.106870174407959
-0.08355712890625,-0.17303466796875,0.94378662109375,-21.22137451171875,51.374046325683594,-4.175572395324707
-0.091552734375,-0.18768310546875,0.9111328125,-20.06106948852539,48.625953674316406,-4.366412162780762
-0.10748291015625,-0.2000732421875,0.8936767578125,-17.862594604492188,37.549617767333984,-2.679389238357544
-0.105224609375,-0.21759033203125,0.86712646484375,-17.76335906982422,30.152671813964844,-1.6488549709320068
-0.094482421875,-0.21624755859375,0.85089111328125,-17.549617767333984,12.32824420928955,2.106870174407959
-0.06646728515625,-0.2259521484375,0.82501220703125,-18.93893051147461,5.687022686004639,2.70992374420166
-0.07366943359375,-0.22900390625,0.81536865234375,-23.916030883789062,-6.6946563720703125,3.7251908779144287
-0.08734130859375,-0.2271728515625,0.82452392578125,-26.427480697631836,-12.038167953491211,4.267175674438477
-0.103515625,-0.22015380859375,0.82781982421875,-30.770992279052734,-21.59541893005371,5.961832046508789
-0.10888671875,-0.21624755859375,0.83160400390625,-33.343509674072266,-25.312976837158203,8.045801162719727
-0.120361328125,-0.21038818359375,0.85223388671875,-37.91603088378906,-32.389312744140625,11.244275093078613
-0.11669921875,-0.2020263671875,0.86480712890625,-39.8702278137207,-35.54198455810547,12.931297302246094
-0.1102294921875,-0.194580078125,0.8863525390625,-42.8015251159668,-40.25954055786133,16.206106185913086
-0.0946044921875,-0.192138671875,0.8900146484375,-43.60305404663086,-42.450382232666016,17.549617767333984
-0.0784912109375,-0.1844482421875,0.90582275390625,-44.87786102294922,-45.656490325927734,18.671754837036133
-0.06866455078125,-0.1842041015625,0.911376953125,-45.33587646484375,-46.183204650878906,19.18320655822754
-0.0491943359375,-0.17266845703125,0.9185791015625,-45.25190734863281,-46.60305404663086,19.06106948852539
-0.04364013671875,-0.170654296875,0.92449951171875,-44.90076446533203,-46.5572509765625,17.76335906982422
-0.03863525390625,-0.17462158203125,0.93487548828125,-44.39694595336914,-45.96946716308594,16.931297302246094
-0.04034423828125,-0.17425537109375,0.9395751953125,-42.847328186035156,-44.74809265136719,15.572519302368164
-0.047607421875,-0.1748046875,0.9490966796875,-41.74809265136719,-43.564884185791016,15.061068534851074
-0.0474853515625,-0.1787109375,0.9549560546875,-39.1984748840332,-42.03053283691406,14.083969116210938
-0.0469970703125,-0.18145751953125,0.95220947265625,-37.96183395385742,-41.267173767089844,13.503816604614258
